# NIC1 TRANSMISSION PROFILE FOR f170m
# BASED ON nic1_f170m_003.tab FROM ftp://ftp.stsci.edu/cdbs/cdbs2/comp/nicmos
1.50000   0.000230292
1.50050   6.99070e-05
1.50100   4.89872e-05
1.50150   9.10884e-05
1.50200   0.000105296
1.50250   7.02557e-05
1.50300   6.33696e-05
1.50350   0.000112793
1.50400   0.000112967
1.50450   2.11813e-05
1.50500   0.000106081
1.50550   7.78391e-05
1.50600   8.50739e-05
1.50650   0.000177383
1.50700   3.55637e-05
1.50750   0.00000
1.50800   0.00000
1.50850   0.000213992
1.50900   1.42952e-05
1.50950   0.00000
1.51000   4.29728e-05
1.51050   7.87980e-05
1.51100   0.000114797
1.51150   0.000186797
1.51200   0.000115146
1.51250   0.000115233
1.51300   1.44695e-05
1.51350   3.60867e-05
1.51400   7.95825e-05
1.51450   0.00000
1.51500   0.000108783
1.51550   0.00000
1.51600   4.35829e-05
1.51650   6.80766e-05
1.51700   0.000116628
1.51750   0.000102158
1.51800   0.00000
1.51850   9.50980e-05
1.51900   0.000126652
1.51950   0.000110003
1.52000   0.00000
1.52050   0.000124996
1.52100   0.00000
1.52150   0.000125345
1.52200   0.000149402
1.52250   0.000169886
1.52300   7.40910e-06
1.52350   0.000133364
1.52400   0.000140947
1.52450   5.94471e-05
1.52500   9.66670e-05
1.52550   0.000141470
1.52600   0.000178952
1.52650   3.73070e-05
1.52700   0.000119592
1.52750   0.000157160
1.52800   0.000112444
1.52850   8.25461e-05
1.52900   0.000135281
1.52950   0.000165528
1.53000   0.000105471
1.53050   0.000143388
1.53100   0.000128395
1.53150   0.000166313
1.53200   0.000174157
1.53250   0.000287909
1.53300   0.000227764
1.53350   7.60087e-05
1.53400   0.00000
1.53450   0.000190545
1.53500   0.000122119
1.53550   0.000259842
1.53600   0.000130052
1.53650   0.000168579
1.53700   0.000222535
1.53750   0.000222796
1.53800   0.000230728
1.53850   8.48124e-05
1.53900   0.000208239
1.53950   0.000146700
1.54000   0.000347007
1.54050   0.000294272
1.54100   0.000271173
1.54150   0.000318243
1.54200   0.000248771
1.54250   0.000334717
1.54300   0.000202661
1.54350   0.000388586
1.54400   0.000281284
1.54450   0.000312926
1.54500   0.000195862
1.54550   0.000290350
1.54600   0.000400527
1.54650   0.000243803
1.54700   0.000448904
1.54750   0.000370542
1.54800   0.000402619
1.54850   0.000363656
1.54900   0.000443239
1.54950   0.000467558
1.55000   0.000357031
1.55050   0.000537552
1.55100   0.000421709
1.55150   0.000573552
1.55200   0.000518376
1.55250   0.000431384
1.55300   0.000463984
1.55350   0.000608592
1.55400   0.000457185
1.55450   0.000602229
1.55500   0.000579043
1.55550   0.000692010
1.55600   0.000693230
1.55650   0.000823369
1.55700   0.000799834
1.55750   0.000696107
1.55800   0.000859107
1.55850   0.000998224
1.55900   0.000869305
1.55950   0.000773249
1.56000   0.000994040
1.56050   0.00115817
1.56100   0.00107031
1.56150   0.00102289
1.56200   0.00122032
1.56250   0.00144661
1.56300   0.00133094
1.56350   0.00144652
1.56400   0.00144129
1.56450   0.00154179
1.56500   0.00162652
1.56550   0.00162896
1.56600   0.00190719
1.56650   0.00195635
1.56700   0.00176084
1.56750   0.00213583
1.56800   0.00240395
1.56850   0.00230763
1.56900   0.00230327
1.56950   0.00269839
1.57000   0.00281938
1.57050   0.00280744
1.57100   0.00319646
1.57150   0.00345273
1.57200   0.00359272
1.57250   0.00377646
1.57300   0.00411589
1.57350   0.00426694
1.57400   0.00440135
1.57450   0.00488940
1.57500   0.00518498
1.57550   0.00542041
1.57600   0.00595526
1.57650   0.00636215
1.57700   0.00685455
1.57750   0.00722596
1.57800   0.00780841
1.57850   0.00845161
1.57900   0.00877473
1.57950   0.00960001
1.58000   0.0103387
1.58050   0.0111580
1.58100   0.0120136
1.58150   0.0129208
1.58200   0.0138946
1.58250   0.0150375
1.58300   0.0164346
1.58350   0.0177343
1.58400   0.0191669
1.58450   0.0208945
1.58500   0.0225768
1.58550   0.0245273
1.58600   0.0267851
1.58650   0.0292890
1.58700   0.0319385
1.58750   0.0348894
1.58800   0.0381907
1.58850   0.0417920
1.58900   0.0457060
1.58950   0.0502414
1.59000   0.0557388
1.59050   0.0611720
1.59100   0.0669706
1.59150   0.0737252
1.59200   0.0814283
1.59250   0.0901648
1.59300   0.0998076
1.59350   0.110422
1.59400   0.122084
1.59450   0.134558
1.59500   0.148921
1.59550   0.165078
1.59600   0.182969
1.59650   0.202764
1.59700   0.223333
1.59750   0.246036
1.59800   0.270322
1.59850   0.296827
1.59900   0.326083
1.59950   0.356551
1.60000   0.388110
1.60050   0.419668
1.60100   0.451726
1.60150   0.484488
1.60200   0.518250
1.60250   0.552619
1.60300   0.584023
1.60350   0.612782
1.60400   0.639473
1.60450   0.664057
1.60500   0.686119
1.60550   0.706021
1.60600   0.722443
1.60650   0.735312
1.60700   0.745893
1.60750   0.753964
1.60800   0.759945
1.60850   0.764180
1.60900   0.766551
1.60950   0.767161
1.61000   0.767264
1.61050   0.766246
1.61100   0.764989
1.61150   0.763193
1.61200   0.760833
1.61250   0.758666
1.61300   0.756696
1.61350   0.754935
1.61400   0.753277
1.61450   0.751823
1.61500   0.750699
1.61550   0.750234
1.61600   0.749937
1.61650   0.750012
1.61700   0.750480
1.61750   0.751618
1.61800   0.753100
1.61850   0.754726
1.61900   0.756875
1.61950   0.759197
1.62000   0.761722
1.62050   0.764728
1.62100   0.767772
1.62150   0.771412
1.62200   0.775005
1.62250   0.778415
1.62300   0.782111
1.62350   0.786253
1.62400   0.790054
1.62450   0.793957
1.62500   0.797921
1.62550   0.801815
1.62600   0.805087
1.62650   0.808640
1.62700   0.812287
1.62750   0.815090
1.62800   0.818127
1.62850   0.820957
1.62900   0.823339
1.62950   0.825456
1.63000   0.827359
1.63050   0.828786
1.63100   0.830577
1.63150   0.831459
1.63200   0.832125
1.63250   0.832785
1.63300   0.832913
1.63350   0.832733
1.63400   0.832486
1.63450   0.831810
1.63500   0.831036
1.63550   0.830000
1.63600   0.828915
1.63650   0.827688
1.63700   0.825918
1.63750   0.824195
1.63800   0.822535
1.63850   0.820730
1.63900   0.818811
1.63950   0.816645
1.64000   0.814790
1.64050   0.812515
1.64100   0.810207
1.64150   0.808515
1.64200   0.806342
1.64250   0.804406
1.64300   0.802422
1.64350   0.800354
1.64400   0.798377
1.64450   0.796918
1.64500   0.795224
1.64550   0.793685
1.64600   0.792307
1.64650   0.790883
1.64700   0.789853
1.64750   0.788897
1.64800   0.788022
1.64850   0.787093
1.64900   0.786556
1.64950   0.785957
1.65000   0.785460
1.65050   0.785159
1.65100   0.785099
1.65150   0.785307
1.65200   0.785021
1.65250   0.785463
1.65300   0.785915
1.65350   0.786306
1.65400   0.787116
1.65450   0.787625
1.65500   0.788168
1.65550   0.789027
1.65600   0.790143
1.65650   0.791188
1.65700   0.792260
1.65750   0.793589
1.65800   0.794413
1.65850   0.795699
1.65900   0.797149
1.65950   0.798530
1.66000   0.799752
1.66050   0.801074
1.66100   0.802356
1.66150   0.803552
1.66200   0.804851
1.66250   0.806152
1.66300   0.807336
1.66350   0.808559
1.66400   0.809748
1.66450   0.810820
1.66500   0.811361
1.66550   0.812661
1.66600   0.813864
1.66650   0.814626
1.66700   0.815403
1.66750   0.816072
1.66800   0.816718
1.66850   0.816957
1.66900   0.817764
1.66950   0.818178
1.67000   0.818061
1.67050   0.818157
1.67100   0.818310
1.67150   0.818201
1.67200   0.818231
1.67250   0.818137
1.67300   0.817663
1.67350   0.817414
1.67400   0.816855
1.67450   0.816356
1.67500   0.815409
1.67550   0.815122
1.67600   0.814266
1.67650   0.813333
1.67700   0.812705
1.67750   0.811977
1.67800   0.810876
1.67850   0.809882
1.67900   0.808739
1.67950   0.807835
1.68000   0.806699
1.68050   0.805727
1.68100   0.804299
1.68150   0.803231
1.68200   0.802195
1.68250   0.801113
1.68300   0.800420
1.68350   0.799254
1.68400   0.798075
1.68450   0.797154
1.68500   0.796317
1.68550   0.795029
1.68600   0.794548
1.68650   0.793243
1.68700   0.792539
1.68750   0.791759
1.68800   0.790811
1.68850   0.790119
1.68900   0.789444
1.68950   0.789153
1.69000   0.788539
1.69050   0.787966
1.69100   0.787426
1.69150   0.787147
1.69200   0.787005
1.69250   0.786882
1.69300   0.786153
1.69350   0.786043
1.69400   0.786015
1.69450   0.786255
1.69500   0.786012
1.69550   0.786284
1.69600   0.786377
1.69650   0.786579
1.69700   0.786952
1.69750   0.787098
1.69800   0.787225
1.69850   0.787714
1.69900   0.787718
1.69950   0.788439
1.70000   0.788908
1.70050   0.789272
1.70100   0.789727
1.70150   0.790219
1.70200   0.790914
1.70250   0.791344
1.70300   0.791722
1.70350   0.792185
1.70400   0.792862
1.70450   0.793156
1.70500   0.794107
1.70550   0.794297
1.70600   0.795013
1.70650   0.795398
1.70700   0.795636
1.70750   0.796214
1.70800   0.796893
1.70850   0.797037
1.70900   0.797346
1.70950   0.797757
1.71000   0.797990
1.71050   0.797812
1.71100   0.798103
1.71150   0.798483
1.71200   0.798078
1.71250   0.798601
1.71300   0.798421
1.71350   0.798412
1.71400   0.798406
1.71450   0.798133
1.71500   0.797683
1.71550   0.797455
1.71600   0.797437
1.71650   0.796785
1.71700   0.796292
1.71750   0.795710
1.71800   0.795191
1.71850   0.794584
1.71900   0.793935
1.71950   0.792942
1.72000   0.792209
1.72050   0.792037
1.72100   0.790834
1.72150   0.789963
1.72200   0.789210
1.72250   0.788210
1.72300   0.787279
1.72350   0.786320
1.72400   0.785383
1.72450   0.784545
1.72500   0.783481
1.72550   0.782531
1.72600   0.781353
1.72650   0.780459
1.72700   0.779557
1.72750   0.778672
1.72800   0.777398
1.72850   0.776449
1.72900   0.775549
1.72950   0.774881
1.73000   0.773618
1.73050   0.773151
1.73100   0.772126
1.73150   0.771604
1.73200   0.770909
1.73250   0.769893
1.73300   0.769431
1.73350   0.769048
1.73400   0.768675
1.73450   0.768014
1.73500   0.767532
1.73550   0.767201
1.73600   0.766892
1.73650   0.766774
1.73700   0.766993
1.73750   0.766902
1.73800   0.766801
1.73850   0.766855
1.73900   0.767072
1.73950   0.767344
1.74000   0.767510
1.74050   0.767901
1.74100   0.768461
1.74150   0.769240
1.74200   0.769760
1.74250   0.770442
1.74300   0.771131
1.74350   0.771912
1.74400   0.772820
1.74450   0.773881
1.74500   0.775041
1.74550   0.776281
1.74600   0.777585
1.74650   0.778354
1.74700   0.779885
1.74750   0.781177
1.74800   0.782704
1.74850   0.784297
1.74900   0.785748
1.74950   0.787246
1.75000   0.788776
1.75050   0.790196
1.75100   0.792161
1.75150   0.793792
1.75200   0.795557
1.75250   0.797350
1.75300   0.798711
1.75350   0.800592
1.75400   0.802407
1.75450   0.804057
1.75500   0.805763
1.75550   0.807307
1.75600   0.808724
1.75650   0.810388
1.75700   0.812044
1.75750   0.813775
1.75800   0.814972
1.75850   0.816392
1.75900   0.817821
1.75950   0.819219
1.76000   0.820041
1.76050   0.821345
1.76100   0.822409
1.76150   0.823490
1.76200   0.823541
1.76250   0.824789
1.76300   0.825530
1.76350   0.826041
1.76400   0.826570
1.76450   0.826934
1.76500   0.827405
1.76550   0.827294
1.76600   0.827678
1.76650   0.827519
1.76700   0.827485
1.76750   0.827386
1.76800   0.827512
1.76850   0.826892
1.76900   0.826393
1.76950   0.825866
1.77000   0.825244
1.77050   0.825043
1.77100   0.823996
1.77150   0.823636
1.77200   0.823205
1.77250   0.821872
1.77300   0.821880
1.77350   0.820613
1.77400   0.819877
1.77450   0.819117
1.77500   0.818356
1.77550   0.818161
1.77600   0.817473
1.77650   0.816625
1.77700   0.816097
1.77750   0.815749
1.77800   0.815447
1.77850   0.815141
1.77900   0.814993
1.77950   0.814958
1.78000   0.814845
1.78050   0.815082
1.78100   0.815479
1.78150   0.815670
1.78200   0.816077
1.78250   0.816413
1.78300   0.816945
1.78350   0.817745
1.78400   0.818696
1.78450   0.819265
1.78500   0.819873
1.78550   0.820868
1.78600   0.821737
1.78650   0.822525
1.78700   0.823211
1.78750   0.823907
1.78800   0.824061
1.78850   0.824707
1.78900   0.824144
1.78950   0.823758
1.79000   0.823005
1.79050   0.821862
1.79100   0.820181
1.79150   0.817691
1.79200   0.814399
1.79250   0.810202
1.79300   0.805525
1.79350   0.799760
1.79400   0.792580
1.79450   0.784600
1.79500   0.775041
1.79550   0.764240
1.79600   0.752139
1.79650   0.739139
1.79700   0.724508
1.79750   0.709034
1.79800   0.691876
1.79850   0.673274
1.79900   0.653226
1.79950   0.632794
1.80000   0.611523
1.80050   0.590076
1.80100   0.567059
1.80150   0.542164
1.80200   0.517586
1.80250   0.494438
1.80300   0.470520
1.80350   0.448313
1.80400   0.425652
1.80450   0.402606
1.80500   0.379474
1.80550   0.357635
1.80600   0.336680
1.80650   0.316869
1.80700   0.297685
1.80750   0.279431
1.80800   0.260862
1.80850   0.244670
1.80900   0.229299
1.80950   0.215297
1.81000   0.201539
1.81050   0.188657
1.81100   0.175603
1.81150   0.162990
1.81200   0.152589
1.81250   0.142694
1.81300   0.133910
1.81350   0.125375
1.81400   0.117326
1.81450   0.109599
1.81500   0.102047
1.81550   0.0951152
1.81600   0.0894694
1.81650   0.0838818
1.81700   0.0784286
1.81750   0.0733747
1.81800   0.0688521
1.81850   0.0641428
1.81900   0.0610358
1.81950   0.0578021
1.82000   0.0539376
1.82050   0.0503563
1.82100   0.0469259
1.82150   0.0439711
1.82200   0.0408023
1.82250   0.0391020
1.82300   0.0365460
1.82350   0.0345961
1.82400   0.0326207
1.82450   0.0311369
1.82500   0.0291426
1.82550   0.0277785
1.82600   0.0263333
1.82650   0.0248622
1.82700   0.0228301
1.82750   0.0217112
1.82800   0.0205863
1.82850   0.0200403
1.82900   0.0187852
1.82950   0.0179660
1.83000   0.0168645
1.83050   0.0163674
1.83100   0.0153365
1.83150   0.0144454
1.83200   0.0136405
1.83250   0.0131354
1.83300   0.0122839
1.83350   0.0117552
1.83400   0.0113490
1.83450   0.0111658
1.83500   0.0102776
1.83550   0.00968125
1.83600   0.00890740
1.83650   0.00870970
1.83700   0.00855716
1.83750   0.00782357
1.83800   0.00810643
1.83850   0.00759084
1.83900   0.00689517
1.83950   0.00688733
1.84000   0.00668589
1.84050   0.00586147
1.84100   0.00581118
1.84150   0.00565393
1.84200   0.00487440
1.84250   0.00475542
1.84300   0.00485061
1.84350   0.00483030
1.84400   0.00499757
1.84450   0.00454335
1.84500   0.00428778
1.84550   0.00435289
1.84600   0.00321093
1.84650   0.00368590
1.84700   0.00352220
1.84750   0.00325870
1.84800   0.00328990
1.84850   0.00332085
1.84900   0.00294080
1.84950   0.00297192
1.85000   0.00295519
1.85050   0.00287220
1.85100   0.00291736
1.85150   0.00276638
1.85200   0.00266736
1.85250   0.00244309
1.85300   0.00206775
1.85350   0.00233918
1.85400   0.00238808
1.85450   0.00267774
1.85500   0.00224130
1.85550   0.00178167
1.85600   0.00129685
1.85650   0.00202608
1.85700   0.00192401
1.85750   0.00175857
1.85800   0.00135037
1.85850   0.00179309
1.85900   0.00133686
1.85950   0.00183109
1.86000   0.00156960
1.86050   0.00167472
1.86100   0.00139614
1.86150   0.00142508
1.86200   0.00107240
1.86250   0.00114240
1.86300   0.00103884
1.86350   0.00130548
1.86400   0.00119731
1.86450   0.000890487
1.86500   0.00130261
1.86550   0.00113499
1.86600   0.00110352
1.86650   0.00111686
1.86700   0.00102237
1.86750   0.000952549
1.86800   0.000925876
1.86850   0.000606239
1.86900   0.000871746
1.86950   0.00109812
1.87000   0.000961440
1.87050   0.000383879
1.87100   0.000922477
1.87150   0.000651304
1.87200   0.000650693
1.87250   0.000919513
1.87300   0.000494143
1.87350   0.000536070
1.87400   0.000514279
1.87450   0.000371937
1.87500   0.000741695
1.87550   0.000239532
1.87600   0.000514976
1.87650   0.000519160
1.87700   0.000583488
1.87750   0.000489698
1.87800   7.10402e-05
1.87850   0.000445766
1.87900   0.000300635
1.87950   0.000392857
1.88000   0.000744397
1.88050   0.000607372
1.88100   0.00107249
1.88150   0.000398784
1.88200   0.000520642
1.88250   0.000310921
1.88300   0.000387540
1.88350   0.000420052
1.88400   0.000518550
1.88450   0.000393118
1.88500   0.000453263
1.88550   0.000523170
1.88600   0.000517504
1.88650   0.000444197
1.88700   0.000165092
1.88750   0.000306998
1.88800   0.000262718
1.88850   0.000169538
1.88900   0.00000
1.88950   7.67931e-05
1.89000   0.000179300
1.89050   0.000189063
1.89100   0.000484991
1.89150   0.000163959
1.89200   0.000509049
1.89250   0.000540080
1.89300   0.000538511
1.89350   0.000148967
1.89400   0.000234040
1.89450   0.000207978
1.89500   0.000239096
1.89550   2.39706e-05
1.89600   0.00000
1.89650   0.000283725
1.89700   0.000408547
1.89750   0.000264897
1.89800   0.00000
1.89850   0.000369583
1.89900   0.000291570
1.89950   0.000435132
1.90000   0.000255135
