# NIC1 TRANSMISSION PROFILE FOR f165m
# BASED ON nic1_f165m_003.tab FROM ftp://ftp.stsci.edu/cdbs/cdbs2/comp/nicmos
1.45150   0.000164155
1.45200   4.41581e-05
1.45250   3.15921e-05
1.45300   5.66357e-05
1.45350   0.000100705
1.45400   0.00000
1.45450   0.000137253
1.45500   9.48647e-05
1.45550   8.22987e-05
1.45600   0.000131235
1.45650   6.34496e-05
1.45700   0.00000
1.45750   0.000196455
1.45800   7.62812e-05
1.45850   0.000114333
1.45900   0.000125306
1.45950   0.000131766
1.46000   7.37910e-08
1.46050   6.41576e-05
1.46100   5.14146e-05
1.46150   0.000106546
1.46200   0.000145217
1.46250   5.16800e-05
1.46300   7.74316e-05
1.46350   0.000277692
1.46400   0.00000
1.46450   9.73425e-05
1.46500   0.00000
1.46550   0.00000
1.46600   0.000257073
1.46650   0.000153005
1.46700   0.000166102
1.46750   0.000153093
1.46800   5.89365e-05
1.46850   0.000105130
1.46900   0.000125306
1.46950   0.000158668
1.47000   7.97324e-05
1.47050   0.000139554
1.47100   0.000152916
1.47150   0.000114864
1.47200   5.99984e-05
1.47250   6.66354e-05
1.47300   0.000172208
1.47350   0.000132563
1.47400   0.000132563
1.47450   0.000337779
1.47500   0.000119466
1.47550   3.34504e-05
1.47600   5.33614e-05
1.47650   7.36264e-05
1.47700   0.000154155
1.47750   0.000207959
1.47800   0.000134244
1.47850   0.000121147
1.47900   0.000248931
1.47950   0.000162828
1.48000   6.77858e-05
1.48050   0.000195924
1.48100   0.000162297
1.48150   0.000108227
1.48200   0.000283798
1.48250   0.000101502
1.48300   7.46883e-05
1.48350   0.000277426
1.48400   0.000251586
1.48450   0.000217251
1.48500   0.000237958
1.48550   0.000197694
1.48600   0.000238843
1.48650   0.000362291
1.48700   0.000218844
1.48750   0.000314770
1.48800   0.000233091
1.48850   0.000226100
1.48900   0.000390786
1.48950   0.000350079
1.49000   0.000364150
1.49050   0.000385299
1.49100   0.000138138
1.49150   0.000317337
1.49200   0.000372733
1.49250   0.000276187
1.49300   0.000304505
1.49350   0.000325744
1.49400   0.000422909
1.49450   0.000444324
1.49500   0.000403352
1.49550   0.000563790
1.49600   0.000425298
1.49650   0.000411936
1.49700   0.000551932
1.49750   0.000552463
1.49800   0.000476270
1.49850   0.000483704
1.49900   0.000547508
1.49950   0.000604143
1.50000   0.000652814
1.50050   0.000647770
1.50100   0.000627948
1.50150   0.000699185
1.50200   0.000721485
1.50250   0.000856703
1.50300   0.000751661
1.50350   0.000871304
1.50400   0.000874402
1.50450   0.000903781
1.50500   0.000976080
1.50550   0.00100351
1.50600   0.000949886
1.50650   0.00106537
1.50700   0.00115988
1.50750   0.00116156
1.50800   0.00135704
1.50850   0.00138704
1.50900   0.00131731
1.50950   0.00147695
1.51000   0.00150757
1.51050   0.00179809
1.51100   0.00174279
1.51150   0.00178119
1.51200   0.00203703
1.51250   0.00215304
1.51300   0.00233268
1.51350   0.00245215
1.51400   0.00252878
1.51450   0.00275718
1.51500   0.00279037
1.51550   0.00296125
1.51600   0.00318496
1.51650   0.00332168
1.51700   0.00361990
1.51750   0.00380795
1.51800   0.00413555
1.51850   0.00434024
1.51900   0.00468961
1.51950   0.00498252
1.52000   0.00524632
1.52050   0.00577073
1.52100   0.00592781
1.52150   0.00645346
1.52200   0.00707096
1.52250   0.00751918
1.52300   0.00814058
1.52350   0.00876375
1.52400   0.00928338
1.52450   0.00999203
1.52500   0.0108853
1.52550   0.0119415
1.52600   0.0128844
1.52650   0.0139320
1.52700   0.0150661
1.52750   0.0164349
1.52800   0.0178082
1.52850   0.0195939
1.52900   0.0211909
1.52950   0.0232242
1.53000   0.0256485
1.53050   0.0277927
1.53100   0.0305217
1.53150   0.0333190
1.53200   0.0366152
1.53250   0.0405275
1.53300   0.0450381
1.53350   0.0498162
1.53400   0.0547377
1.53450   0.0606863
1.53500   0.0671749
1.53550   0.0746405
1.53600   0.0833660
1.53650   0.0931684
1.53700   0.103498
1.53750   0.115411
1.53800   0.128642
1.53850   0.143628
1.53900   0.161043
1.53950   0.180983
1.54000   0.201793
1.54050   0.224612
1.54100   0.249311
1.54150   0.277810
1.54200   0.308596
1.54250   0.342962
1.54300   0.377880
1.54350   0.413067
1.54400   0.451223
1.54450   0.490417
1.54500   0.530305
1.54550   0.571254
1.54600   0.609858
1.54650   0.645141
1.54700   0.678922
1.54750   0.710592
1.54800   0.737745
1.54850   0.762029
1.54900   0.783326
1.54950   0.798351
1.55000   0.810196
1.55050   0.818433
1.55100   0.823633
1.55150   0.825959
1.55200   0.825958
1.55250   0.823882
1.55300   0.820363
1.55350   0.816077
1.55400   0.810808
1.55450   0.805205
1.55500   0.799111
1.55550   0.793277
1.55600   0.787793
1.55650   0.783088
1.55700   0.778769
1.55750   0.775059
1.55800   0.771934
1.55850   0.768892
1.55900   0.767316
1.55950   0.766072
1.56000   0.765696
1.56050   0.765784
1.56100   0.766336
1.56150   0.767434
1.56200   0.769448
1.56250   0.771435
1.56300   0.774257
1.56350   0.777289
1.56400   0.780491
1.56450   0.784552
1.56500   0.788372
1.56550   0.792411
1.56600   0.796435
1.56650   0.800679
1.56700   0.804822
1.56750   0.808987
1.56800   0.813385
1.56850   0.817119
1.56900   0.820851
1.56950   0.824003
1.57000   0.827510
1.57050   0.830367
1.57100   0.832725
1.57150   0.834834
1.57200   0.836344
1.57250   0.837505
1.57300   0.838483
1.57350   0.838773
1.57400   0.838367
1.57450   0.837846
1.57500   0.836678
1.57550   0.835198
1.57600   0.833539
1.57650   0.831044
1.57700   0.828459
1.57750   0.825270
1.57800   0.821951
1.57850   0.818459
1.57900   0.814771
1.57950   0.810777
1.58000   0.806372
1.58050   0.801984
1.58100   0.797119
1.58150   0.792714
1.58200   0.788138
1.58250   0.783541
1.58300   0.778988
1.58350   0.774228
1.58400   0.769432
1.58450   0.765280
1.58500   0.760887
1.58550   0.756688
1.58600   0.752782
1.58650   0.748658
1.58700   0.744674
1.58750   0.741479
1.58800   0.738014
1.58850   0.735013
1.58900   0.732294
1.58950   0.729338
1.59000   0.726815
1.59050   0.724707
1.59100   0.722728
1.59150   0.721044
1.59200   0.719785
1.59250   0.718434
1.59300   0.717400
1.59350   0.716866
1.59400   0.716187
1.59450   0.715997
1.59500   0.715958
1.59550   0.715979
1.59600   0.716487
1.59650   0.717260
1.59700   0.717997
1.59750   0.719446
1.59800   0.720146
1.59850   0.721931
1.59900   0.723723
1.59950   0.725552
1.60000   0.727461
1.60050   0.729736
1.60100   0.731741
1.60150   0.734471
1.60200   0.737071
1.60250   0.739518
1.60300   0.742588
1.60350   0.745376
1.60400   0.748112
1.60450   0.751277
1.60500   0.754322
1.60550   0.757696
1.60600   0.760996
1.60650   0.763815
1.60700   0.767069
1.60750   0.770594
1.60800   0.773677
1.60850   0.776952
1.60900   0.780274
1.60950   0.783297
1.61000   0.786128
1.61050   0.789202
1.61100   0.791720
1.61150   0.794769
1.61200   0.797682
1.61250   0.799948
1.61300   0.802804
1.61350   0.805120
1.61400   0.806871
1.61450   0.809150
1.61500   0.811277
1.61550   0.813061
1.61600   0.814718
1.61650   0.816181
1.61700   0.817439
1.61750   0.819054
1.61800   0.819647
1.61850   0.820780
1.61900   0.821504
1.61950   0.821912
1.62000   0.822531
1.62050   0.822966
1.62100   0.823031
1.62150   0.823103
1.62200   0.823068
1.62250   0.822742
1.62300   0.822572
1.62350   0.822271
1.62400   0.821843
1.62450   0.821181
1.62500   0.820424
1.62550   0.819801
1.62600   0.819080
1.62650   0.818017
1.62700   0.817326
1.62750   0.816366
1.62800   0.815224
1.62850   0.814304
1.62900   0.813512
1.62950   0.812269
1.63000   0.811265
1.63050   0.810428
1.63100   0.809092
1.63150   0.808146
1.63200   0.807113
1.63250   0.806095
1.63300   0.805291
1.63350   0.804451
1.63400   0.803579
1.63450   0.802819
1.63500   0.802094
1.63550   0.801108
1.63600   0.800590
1.63650   0.799824
1.63700   0.799365
1.63750   0.798924
1.63800   0.798354
1.63850   0.798140
1.63900   0.797933
1.63950   0.797424
1.64000   0.797238
1.64050   0.797148
1.64100   0.797064
1.64150   0.797093
1.64200   0.797003
1.64250   0.797278
1.64300   0.797470
1.64350   0.797610
1.64400   0.797730
1.64450   0.798001
1.64500   0.798351
1.64550   0.798652
1.64600   0.799252
1.64650   0.799690
1.64700   0.800103
1.64750   0.800790
1.64800   0.800932
1.64850   0.801639
1.64900   0.802268
1.64950   0.802905
1.65000   0.803535
1.65050   0.804002
1.65100   0.804613
1.65150   0.805244
1.65200   0.805879
1.65250   0.806454
1.65300   0.806965
1.65350   0.807575
1.65400   0.808471
1.65450   0.808534
1.65500   0.808979
1.65550   0.809553
1.65600   0.810059
1.65650   0.810352
1.65700   0.810929
1.65750   0.811089
1.65800   0.811326
1.65850   0.811548
1.65900   0.811463
1.65950   0.811624
1.66000   0.811978
1.66050   0.811944
1.66100   0.812084
1.66150   0.812089
1.66200   0.811619
1.66250   0.811570
1.66300   0.811345
1.66350   0.810953
1.66400   0.810826
1.66450   0.810674
1.66500   0.810078
1.66550   0.809780
1.66600   0.809619
1.66650   0.808789
1.66700   0.808397
1.66750   0.807682
1.66800   0.806957
1.66850   0.806626
1.66900   0.805980
1.66950   0.805385
1.67000   0.804630
1.67050   0.803852
1.67100   0.803159
1.67150   0.802599
1.67200   0.801949
1.67250   0.801419
1.67300   0.800913
1.67350   0.800058
1.67400   0.799389
1.67450   0.798772
1.67500   0.798337
1.67550   0.797613
1.67600   0.797074
1.67650   0.796787
1.67700   0.796398
1.67750   0.796020
1.67800   0.795574
1.67850   0.795094
1.67900   0.794870
1.67950   0.794611
1.68000   0.794482
1.68050   0.794244
1.68100   0.794280
1.68150   0.794225
1.68200   0.794026
1.68250   0.794227
1.68300   0.794273
1.68350   0.794530
1.68400   0.794922
1.68450   0.795470
1.68500   0.795850
1.68550   0.796390
1.68600   0.796637
1.68650   0.797240
1.68700   0.798001
1.68750   0.798487
1.68800   0.799419
1.68850   0.800255
1.68900   0.800959
1.68950   0.802072
1.69000   0.803011
1.69050   0.803957
1.69100   0.804990
1.69150   0.806168
1.69200   0.807322
1.69250   0.808504
1.69300   0.809590
1.69350   0.810802
1.69400   0.811952
1.69450   0.813374
1.69500   0.814445
1.69550   0.815611
1.69600   0.817201
1.69650   0.818143
1.69700   0.819616
1.69750   0.820759
1.69800   0.822239
1.69850   0.823346
1.69900   0.824137
1.69950   0.825448
1.70000   0.826992
1.70050   0.827712
1.70100   0.829127
1.70150   0.829733
1.70200   0.830754
1.70250   0.831518
1.70300   0.832415
1.70350   0.833048
1.70400   0.834017
1.70450   0.834605
1.70500   0.835010
1.70550   0.835370
1.70600   0.835677
1.70650   0.836084
1.70700   0.836291
1.70750   0.836493
1.70800   0.836592
1.70850   0.836676
1.70900   0.836545
1.70950   0.836511
1.71000   0.836093
1.71050   0.836199
1.71100   0.836052
1.71150   0.835275
1.71200   0.835370
1.71250   0.834940
1.71300   0.834049
1.71350   0.833241
1.71400   0.833085
1.71450   0.832428
1.71500   0.831808
1.71550   0.831405
1.71600   0.830813
1.71650   0.830098
1.71700   0.829592
1.71750   0.828984
1.71800   0.828542
1.71850   0.827765
1.71900   0.827354
1.71950   0.826880
1.72000   0.826384
1.72050   0.825912
1.72100   0.825421
1.72150   0.824644
1.72200   0.824288
1.72250   0.823785
1.72300   0.823192
1.72350   0.822566
1.72400   0.822046
1.72450   0.821376
1.72500   0.820505
1.72550   0.819397
1.72600   0.818137
1.72650   0.816780
1.72700   0.815418
1.72750   0.813604
1.72800   0.811459
1.72850   0.809052
1.72900   0.806148
1.72950   0.802187
1.73000   0.798866
1.73050   0.794479
1.73100   0.789424
1.73150   0.783856
1.73200   0.776826
1.73250   0.768804
1.73300   0.761001
1.73350   0.751634
1.73400   0.742497
1.73450   0.731360
1.73500   0.718365
1.73550   0.704777
1.73600   0.690882
1.73650   0.675861
1.73700   0.660574
1.73750   0.644229
1.73800   0.625937
1.73850   0.606385
1.73900   0.586639
1.73950   0.567278
1.74000   0.547274
1.74050   0.527381
1.74100   0.506380
1.74150   0.483705
1.74200   0.462183
1.74250   0.441523
1.74300   0.420980
1.74350   0.400824
1.74400   0.380125
1.74450   0.359692
1.74500   0.339146
1.74550   0.321444
1.74600   0.303854
1.74650   0.286293
1.74700   0.270000
1.74750   0.253466
1.74800   0.237825
1.74850   0.223546
1.74900   0.210326
1.74950   0.197876
1.75000   0.185456
1.75050   0.173964
1.75100   0.162075
1.75150   0.151943
1.75200   0.142677
1.75250   0.133561
1.75300   0.125632
1.75350   0.117352
1.75400   0.109777
1.75450   0.102636
1.75500   0.0964365
1.75550   0.0905650
1.75600   0.0851572
1.75650   0.0800314
1.75700   0.0750315
1.75750   0.0700515
1.75800   0.0657039
1.75850   0.0621248
1.75900   0.0585246
1.75950   0.0549471
1.76000   0.0513270
1.76050   0.0481918
1.76100   0.0454720
1.76150   0.0429111
1.76200   0.0404379
1.76250   0.0381721
1.76300   0.0360516
1.76350   0.0340002
1.76400   0.0320242
1.76450   0.0304863
1.76500   0.0290975
1.76550   0.0273283
1.76600   0.0256171
1.76650   0.0242841
1.76700   0.0231077
1.76750   0.0214869
1.76800   0.0207099
1.76850   0.0197560
1.76900   0.0191218
1.76950   0.0177957
1.77000   0.0164750
1.77050   0.0158983
1.77100   0.0152070
1.77150   0.0144021
1.77200   0.0136272
1.77250   0.0129968
1.77300   0.0122473
1.77350   0.0120576
1.77400   0.0111999
1.77450   0.0106352
1.77500   0.0102717
1.77550   0.00976531
1.77600   0.00939656
1.77650   0.00854765
1.77700   0.00827279
1.77750   0.00845349
1.77800   0.00824067
1.77850   0.00729379
1.77900   0.00733042
1.77950   0.00716530
1.78000   0.00660929
1.78050   0.00595294
1.78100   0.00605621
1.78150   0.00573631
1.78200   0.00545012
1.78250   0.00516800
1.78300   0.00508057
1.78350   0.00512376
1.78400   0.00458085
1.78450   0.00462634
1.78500   0.00436732
1.78550   0.00413900
1.78600   0.00402370
1.78650   0.00399264
1.78700   0.00366229
1.78750   0.00349946
1.78800   0.00317142
1.78850   0.00322514
1.78900   0.00339938
1.78950   0.00316832
1.79000   0.00284382
1.79050   0.00305125
1.79100   0.00287160
1.79150   0.00260710
1.79200   0.00256312
1.79250   0.00253462
1.79300   0.00257427
1.79350   0.00232419
1.79400   0.00234489
1.79450   0.00171641
1.79500   0.00201101
1.79550   0.00199738
1.79600   0.00210260
1.79650   0.00193402
1.79700   0.00181349
1.79750   0.00188429
1.79800   0.00188889
1.79850   0.00162066
1.79900   0.00164695
1.79950   0.00143129
1.80000   0.00195420
1.80050   0.00141341
1.80100   0.00130908
1.80150   0.00139704
1.80200   0.00177243
1.80250   0.00148164
1.80300   0.00130014
1.80350   0.00137049
1.80400   0.00128908
1.80450   0.00124156
1.80500   0.00119802
1.80550   0.00111484
1.80600   0.00104422
1.80650   0.00111616
1.80700   0.00113156
1.80750   0.00112262
1.80800   0.00121147
1.80850   0.000929002
1.80900   0.000951745
1.80950   0.000829270
1.81000   0.000819713
1.81050   0.000866968
1.81100   0.000869888
1.81150   0.000777413
1.81200   0.00102254
1.81250   0.000793607
1.81300   0.000848738
1.81350   0.000788032
1.81400   0.000687327
1.81450   0.000762723
1.81500   0.000750688
1.81550   2.12384e-05
1.81600   0.000954399
1.81650   0.000873871
1.81700   0.000808385
1.81750   0.000527951
1.81800   0.000780599
1.81850   0.000298399
1.81900   0.000546977
1.81950   0.000462819
1.82000   0.000516800
1.82050   0.000280258
1.82100   0.000150173
1.82150   0.000630868
1.82200   0.000204862
1.82250   0.000376450
1.82300   0.000757590
1.82350   0.000579277
1.82400   0.000314239
1.82450   0.000280966
1.82500   0.000410697
1.82550   0.000949886
1.82600   0.000688300
1.82650   0.000406449
1.82700   0.000593701
1.82750   0.000532641
1.82800   0.000298930
1.82850   0.000383441
1.82900   0.000494766
1.82950   0.000522464
1.83000   0.000132386
1.83050   0.000219729
1.83100   0.000608391
1.83150   0.000494677
1.83200   0.000402113
1.83250   0.000106015
1.83300   0.000209109
1.83350   0.000340345
1.83400   8.72543e-05
1.83450   0.000269816
1.83500   2.38932e-06
1.83550   0.000383087
1.83600   0.000585560
1.83650   0.000328841
1.83700   0.000120262
1.83750   0.000383087
1.83800   0.000468129
1.83850   0.000368043
1.83900   0.000488306
1.83950   0.000403352
1.84000   0.000468837
1.84050   0.000352822
1.84100   0.00000
1.84150   0.000513084
1.84200   0.000235126
1.84250   0.000608656
1.84300   0.000241144
1.84350   0.000215658
1.84400   0.000477421
1.84450   6.39806e-05
1.84500   0.000194774
1.84550   0.000205127
1.84600   0.000291143
1.84650   0.00000
1.84700   0.000158580
1.84750   8.81392e-05
1.84800   0.00000
1.84850   0.000171854
1.84900   0.000534411
1.84950   0.000178756
1.85000   0.000307691
