# NIC1 TRANSMISSION PROFILE FOR f145m
# BASED ON nic1_f145m_003.tab FROM ftp://ftp.stsci.edu/cdbs/cdbs2/comp/nicmos
1.19950   0.000132551
1.20000   1.86689e-08
1.20050   6.05999e-05
1.20100   0.00000
1.20150   2.87340e-08
1.20200   4.04893e-05
1.20250   3.53946e-05
1.20300   5.55946e-05
1.20350   6.56052e-05
1.20400   0.00000
1.20450   8.58946e-05
1.20500   5.04999e-05
1.20550   8.58946e-05
1.20600   4.03999e-05
1.20650   2.02000e-05
1.20700   7.06999e-05
1.20750   5.09468e-06
1.20800   5.09468e-06
1.20850   1.82336e-05
1.20900   0.00000
1.20950   5.04999e-05
1.21000   3.36070e-05
1.21050   0.00000
1.21100   1.01000e-05
1.21150   0.00000
1.21200   0.00000
1.21250   0.00000
1.21300   3.88805e-05
1.21350   3.53053e-05
1.21400   4.54052e-05
1.21450   3.39234e-08
1.21500   4.54052e-05
1.21550   1.01000e-05
1.21600   4.91592e-05
1.21650   0.00000
1.21700   5.09468e-06
1.21750   9.59052e-05
1.21800   4.54052e-05
1.21850   0.00000
1.21900   0.000135233
1.21950   0.00000
1.22000   4.03999e-05
1.22050   0.00000
1.22100   4.54052e-05
1.22150   0.00000
1.22200   2.52947e-05
1.22250   0.000141400
1.22300   6.05999e-05
1.22350   0.00000
1.22400   1.01000e-05
1.22450   2.02000e-05
1.22500   0.00000
1.22550   5.47249e-08
1.22600   7.02530e-05
1.22650   0.00000
1.22700   4.03999e-05
1.22750   0.00000
1.22800   0.000131479
1.22850   5.56840e-05
1.22900   0.00000
1.22950   0.00000
1.23000   2.02893e-05
1.23050   2.53840e-05
1.23100   6.07787e-05
1.23150   6.56052e-05
1.23200   0.00000
1.23250   2.52947e-05
1.23300   0.00000
1.23350   0.00000
1.23400   3.54840e-05
1.23450   0.00000
1.23500   3.04787e-05
1.23550   5.09468e-06
1.23600   2.29100e-08
1.23650   2.03787e-05
1.23700   3.04787e-05
1.23750   0.00000
1.23800   0.000116820
1.23850   1.52840e-05
1.23900   5.08574e-05
1.23950   4.07575e-05
1.24000   0.000116999
1.24050   6.10468e-05
1.24100   2.54734e-05
1.24150   7.63308e-05
1.24200   3.04787e-05
1.24250   0.00000
1.24300   9.16149e-05
1.24350   0.00000
1.24400   2.54734e-05
1.24450   0.00000
1.24500   5.18406e-06
1.24550   0.00000
1.24600   3.11044e-05
1.24650   6.25663e-07
1.24700   0.00000
1.24750   0.00000
1.24800   0.00000
1.24850   0.00000
1.24900   0.00000
1.24950   5.63096e-05
1.25000   0.00000
1.25050   0.00000
1.25100   0.000102519
1.25150   4.17406e-05
1.25200   0.00000
1.25250   0.00000
1.25300   4.10256e-05
1.25350   3.59309e-05
1.25400   0.00000
1.25450   5.13937e-05
1.25500   3.09256e-05
1.25550   3.60203e-05
1.25600   7.72247e-05
1.25650   8.75928e-05
1.25700   8.32131e-05
1.25750   4.63884e-05
1.25800   0.00000
1.25850   0.00000
1.25900   1.54628e-05
1.25950   5.18406e-06
1.26000   1.03681e-05
1.26050   0.00000
1.26100   3.11044e-05
1.26150   8.78609e-05
1.26200   1.03681e-05
1.26250   4.66566e-05
1.26300   4.76398e-05
1.26350   7.35601e-05
1.26400   1.50749e-08
1.26450   2.69929e-05
1.26500   4.67459e-05
1.26550   2.59203e-05
1.26600   0.00000
1.26650   5.72034e-05
1.26700   3.12831e-05
1.26750   5.72034e-05
1.26800   2.60991e-05
1.26850   3.76291e-05
1.26900   0.000135411
1.26950   0.00000
1.27000   0.00000
1.27050   3.13725e-05
1.27100   7.31132e-05
1.27150   6.27450e-05
1.27200   6.80185e-05
1.27250   6.28344e-05
1.27300   5.87229e-05
1.27350   5.75610e-05
1.27400   2.10044e-05
1.27450   8.91123e-05
1.27500   4.72822e-05
1.27550   0.000105022
1.27600   8.51795e-05
1.27650   4.73716e-05
1.27700   8.52689e-05
1.27750   5.79185e-05
1.27800   7.37388e-05
1.27850   0.000168571
1.27900   6.85548e-05
1.27950   0.00000
1.28000   0.000105648
1.28050   0.000143724
1.28100   0.000100374
1.28150   6.87335e-05
1.28200   1.59097e-05
1.28250   8.47326e-05
1.28300   0.000106005
1.28350   7.95485e-05
1.28400   5.84548e-05
1.28450   6.90910e-05
1.28500   0.000164728
1.28550   0.000154181
1.28600   0.000212815
1.28650   0.000127814
1.28700   0.000149176
1.28750   0.000138718
1.28800   0.000154807
1.28850   0.000176258
1.28900   0.000187073
1.28950   0.000155164
1.29000   0.000294240
1.29050   0.000193955
1.29100   0.000294687
1.29150   0.000262868
1.29200   0.000257684
1.29250   0.000284766
1.29300   0.000285928
1.29350   0.000317479
1.29400   0.000306932
1.29450   0.000334193
1.29500   0.000307558
1.29550   0.000377900
1.29600   0.000389073
1.29650   0.000465046
1.29700   0.000324898
1.29750   0.000487659
1.29800   0.000461739
1.29850   0.000483101
1.29900   0.000527076
1.29950   0.000522160
1.30000   0.000566225
1.30050   0.000605105
1.30100   0.000519032
1.30150   0.000628165
1.30200   0.000634601
1.30250   0.000744807
1.30300   0.000778682
1.30350   0.000812557
1.30400   0.000808446
1.30450   0.000892284
1.30500   0.000883168
1.30550   0.000929556
1.30600   0.000893000
1.30650   0.000999630
1.30700   0.00108329
1.30750   0.00112735
1.30800   0.00112592
1.30850   0.00120583
1.30900   0.00125088
1.30950   0.00133373
1.31000   0.00136725
1.31050   0.00153547
1.31100   0.00149659
1.31150   0.00157739
1.31200   0.00176455
1.31250   0.00176937
1.31300   0.00196619
1.31350   0.00198138
1.31400   0.00207023
1.31450   0.00218008
1.31500   0.00225265
1.31550   0.00238833
1.31600   0.00249273
1.31650   0.00271100
1.31700   0.00277875
1.31750   0.00299809
1.31800   0.00309640
1.31850   0.00330475
1.31900   0.00328017
1.31950   0.00365316
1.32000   0.00399968
1.32050   0.00402694
1.32100   0.00432789
1.32150   0.00470623
1.32200   0.00484889
1.32250   0.00516047
1.32300   0.00543871
1.32350   0.00569049
1.32400   0.00620684
1.32450   0.00652924
1.32500   0.00699643
1.32550   0.00731409
1.32600   0.00775580
1.32650   0.00832596
1.32700   0.00883954
1.32750   0.00945207
1.32800   0.0101467
1.32850   0.0108102
1.32900   0.0114646
1.32950   0.0121980
1.33000   0.0130179
1.33050   0.0139290
1.33100   0.0150001
1.33150   0.0160278
1.33200   0.0170842
1.33250   0.0185114
1.33300   0.0197932
1.33350   0.0213340
1.33400   0.0229662
1.33450   0.0246148
1.33500   0.0264940
1.33550   0.0285451
1.33600   0.0307540
1.33650   0.0332002
1.33700   0.0360061
1.33750   0.0390144
1.33800   0.0420189
1.33850   0.0453985
1.33900   0.0490849
1.33950   0.0533324
1.34000   0.0580177
1.34050   0.0631523
1.34100   0.0684186
1.34150   0.0741049
1.34200   0.0804811
1.34250   0.0874654
1.34300   0.0954558
1.34350   0.104526
1.34400   0.113632
1.34450   0.123662
1.34500   0.134494
1.34550   0.146393
1.34600   0.159449
1.34650   0.174245
1.34700   0.190245
1.34750   0.206301
1.34800   0.223913
1.34850   0.242952
1.34900   0.263577
1.34950   0.285554
1.35000   0.309561
1.35050   0.333717
1.35100   0.357595
1.35150   0.383879
1.35200   0.410191
1.35250   0.437896
1.35300   0.466927
1.35350   0.493997
1.35400   0.521390
1.35450   0.548065
1.35500   0.574486
1.35550   0.600404
1.35600   0.625411
1.35650   0.648497
1.35700   0.667509
1.35750   0.685422
1.35800   0.701545
1.35850   0.717103
1.35900   0.730665
1.35950   0.742301
1.36000   0.751686
1.36050   0.759572
1.36100   0.766267
1.36150   0.771720
1.36200   0.775757
1.36250   0.779229
1.36300   0.781064
1.36350   0.782437
1.36400   0.783033
1.36450   0.783169
1.36500   0.782867
1.36550   0.782756
1.36600   0.782040
1.36650   0.781291
1.36700   0.780559
1.36750   0.779752
1.36800   0.778676
1.36850   0.777867
1.36900   0.776848
1.36950   0.775898
1.37000   0.775347
1.37050   0.774510
1.37100   0.773781
1.37150   0.773407
1.37200   0.772854
1.37250   0.772545
1.37300   0.772067
1.37350   0.771856
1.37400   0.771693
1.37450   0.771693
1.37500   0.771485
1.37550   0.771568
1.37600   0.771734
1.37650   0.772018
1.37700   0.772203
1.37750   0.772525
1.37800   0.773110
1.37850   0.773273
1.37900   0.773649
1.37950   0.774198
1.38000   0.774851
1.38050   0.775166
1.38100   0.775809
1.38150   0.776436
1.38200   0.777109
1.38250   0.777260
1.38300   0.778018
1.38350   0.777988
1.38400   0.778091
1.38450   0.778475
1.38500   0.778809
1.38550   0.778944
1.38600   0.778890
1.38650   0.778999
1.38700   0.779019
1.38750   0.778722
1.38800   0.778488
1.38850   0.778158
1.38900   0.777716
1.38950   0.777396
1.39000   0.776893
1.39050   0.776223
1.39100   0.775782
1.39150   0.774958
1.39200   0.774116
1.39250   0.773607
1.39300   0.772819
1.39350   0.771760
1.39400   0.771254
1.39450   0.770027
1.39500   0.769107
1.39550   0.768023
1.39600   0.766912
1.39650   0.765953
1.39700   0.764798
1.39750   0.763775
1.39800   0.763171
1.39850   0.762154
1.39900   0.761290
1.39950   0.760372
1.40000   0.759319
1.40050   0.758260
1.40100   0.757541
1.40150   0.756658
1.40200   0.755703
1.40250   0.755125
1.40300   0.754390
1.40350   0.753672
1.40400   0.753049
1.40450   0.752165
1.40500   0.751817
1.40550   0.751282
1.40600   0.750617
1.40650   0.750196
1.40700   0.749837
1.40750   0.749611
1.40800   0.749249
1.40850   0.748776
1.40900   0.748663
1.40950   0.748542
1.41000   0.748340
1.41050   0.748077
1.41100   0.748002
1.41150   0.747877
1.41200   0.747910
1.41250   0.748452
1.41300   0.748295
1.41350   0.748471
1.41400   0.748694
1.41450   0.748851
1.41500   0.749072
1.41550   0.749280
1.41600   0.749562
1.41650   0.749911
1.41700   0.750129
1.41750   0.750583
1.41800   0.751129
1.41850   0.751418
1.41900   0.751904
1.41950   0.752422
1.42000   0.752858
1.42050   0.753470
1.42100   0.754030
1.42150   0.754522
1.42200   0.755198
1.42250   0.755928
1.42300   0.756530
1.42350   0.757320
1.42400   0.758116
1.42450   0.758489
1.42500   0.759655
1.42550   0.760018
1.42600   0.761231
1.42650   0.761566
1.42700   0.763096
1.42750   0.764385
1.42800   0.764640
1.42850   0.765406
1.42900   0.766487
1.42950   0.767402
1.43000   0.768346
1.43050   0.769365
1.43100   0.770507
1.43150   0.771496
1.43200   0.772667
1.43250   0.773889
1.43300   0.774891
1.43350   0.776269
1.43400   0.777441
1.43450   0.778650
1.43500   0.780339
1.43550   0.781364
1.43600   0.782761
1.43650   0.784061
1.43700   0.785321
1.43750   0.786813
1.43800   0.788405
1.43850   0.789684
1.43900   0.791301
1.43950   0.792478
1.44000   0.793850
1.44050   0.795495
1.44100   0.797017
1.44150   0.798472
1.44200   0.800076
1.44250   0.801537
1.44300   0.802807
1.44350   0.804366
1.44400   0.805985
1.44450   0.807551
1.44500   0.809110
1.44550   0.810456
1.44600   0.811791
1.44650   0.813236
1.44700   0.814510
1.44750   0.816219
1.44800   0.817241
1.44850   0.818282
1.44900   0.819812
1.44950   0.820871
1.45000   0.821688
1.45050   0.823038
1.45100   0.823867
1.45150   0.824844
1.45200   0.825691
1.45250   0.826242
1.45300   0.826902
1.45350   0.827684
1.45400   0.828026
1.45450   0.828497
1.45500   0.829022
1.45550   0.829085
1.45600   0.829328
1.45650   0.829207
1.45700   0.829245
1.45750   0.829073
1.45800   0.828838
1.45850   0.828537
1.45900   0.828394
1.45950   0.827517
1.46000   0.826735
1.46050   0.826333
1.46100   0.825272
1.46150   0.824554
1.46200   0.823582
1.46250   0.822243
1.46300   0.821094
1.46350   0.820038
1.46400   0.818506
1.46450   0.817173
1.46500   0.815797
1.46550   0.814046
1.46600   0.812433
1.46650   0.810566
1.46700   0.808747
1.46750   0.807193
1.46800   0.805369
1.46850   0.803557
1.46900   0.801796
1.46950   0.799831
1.47000   0.797868
1.47050   0.796071
1.47100   0.793862
1.47150   0.792071
1.47200   0.790246
1.47250   0.788217
1.47300   0.786356
1.47350   0.784405
1.47400   0.782663
1.47450   0.781066
1.47500   0.779431
1.47550   0.777611
1.47600   0.776076
1.47650   0.774438
1.47700   0.772842
1.47750   0.771533
1.47800   0.770193
1.47850   0.768994
1.47900   0.767954
1.47950   0.766646
1.48000   0.765842
1.48050   0.764996
1.48100   0.763868
1.48150   0.763521
1.48200   0.762895
1.48250   0.762271
1.48300   0.761938
1.48350   0.761777
1.48400   0.761552
1.48450   0.761778
1.48500   0.761690
1.48550   0.761978
1.48600   0.762434
1.48650   0.762704
1.48700   0.763427
1.48750   0.764273
1.48800   0.764804
1.48850   0.765833
1.48900   0.766920
1.48950   0.768147
1.49000   0.769396
1.49050   0.770730
1.49100   0.771982
1.49150   0.774117
1.49200   0.775635
1.49250   0.777563
1.49300   0.779200
1.49350   0.781172
1.49400   0.783138
1.49450   0.785283
1.49500   0.787639
1.49550   0.789838
1.49600   0.791957
1.49650   0.794261
1.49700   0.796646
1.49750   0.798903
1.49800   0.801427
1.49850   0.803988
1.49900   0.806239
1.49950   0.808380
1.50000   0.811033
1.50050   0.813484
1.50100   0.815682
1.50150   0.818075
1.50200   0.820115
1.50250   0.822207
1.50300   0.824469
1.50350   0.826135
1.50400   0.828146
1.50450   0.830074
1.50500   0.831467
1.50550   0.832982
1.50600   0.834473
1.50650   0.835801
1.50700   0.837027
1.50750   0.838076
1.50800   0.838641
1.50850   0.839402
1.50900   0.839781
1.50950   0.839867
1.51000   0.840411
1.51050   0.840169
1.51100   0.839768
1.51150   0.839717
1.51200   0.839007
1.51250   0.838397
1.51300   0.837751
1.51350   0.836677
1.51400   0.835870
1.51450   0.834679
1.51500   0.833238
1.51550   0.832031
1.51600   0.830292
1.51650   0.828808
1.51700   0.827233
1.51750   0.825542
1.51800   0.823568
1.51850   0.822036
1.51900   0.820148
1.51950   0.818465
1.52000   0.816590
1.52050   0.814725
1.52100   0.813040
1.52150   0.811216
1.52200   0.809781
1.52250   0.808174
1.52300   0.806975
1.52350   0.805213
1.52400   0.804164
1.52450   0.803277
1.52500   0.802163
1.52550   0.801399
1.52600   0.800497
1.52650   0.800074
1.52700   0.799657
1.52750   0.799374
1.52800   0.798985
1.52850   0.799215
1.52900   0.799580
1.52950   0.799614
1.53000   0.800235
1.53050   0.800643
1.53100   0.801097
1.53150   0.801861
1.53200   0.802122
1.53250   0.802932
1.53300   0.803550
1.53350   0.803777
1.53400   0.804183
1.53450   0.804247
1.53500   0.804004
1.53550   0.803587
1.53600   0.802876
1.53650   0.801199
1.53700   0.799507
1.53750   0.796901
1.53800   0.793621
1.53850   0.789458
1.53900   0.784264
1.53950   0.777971
1.54000   0.771000
1.54050   0.762632
1.54100   0.753347
1.54150   0.742470
1.54200   0.730338
1.54250   0.716306
1.54300   0.701578
1.54350   0.686220
1.54400   0.669209
1.54450   0.651429
1.54500   0.631819
1.54550   0.610579
1.54600   0.589273
1.54650   0.568318
1.54700   0.546585
1.54750   0.523697
1.54800   0.501408
1.54850   0.478140
1.54900   0.453991
1.54950   0.432054
1.55000   0.410540
1.55050   0.389327
1.55100   0.368378
1.55150   0.347141
1.55200   0.327114
1.55250   0.307863
1.55300   0.290308
1.55350   0.273268
1.55400   0.257083
1.55450   0.241182
1.55500   0.225679
1.55550   0.211846
1.55600   0.198570
1.55650   0.186722
1.55700   0.175357
1.55750   0.164381
1.55800   0.154045
1.55850   0.143837
1.55900   0.134869
1.55950   0.126808
1.56000   0.119015
1.56050   0.111865
1.56100   0.104952
1.56150   0.0982643
1.56200   0.0920075
1.56250   0.0866257
1.56300   0.0817022
1.56350   0.0771766
1.56400   0.0725605
1.56450   0.0682445
1.56500   0.0639390
1.56550   0.0604616
1.56600   0.0571114
1.56650   0.0539080
1.56700   0.0509098
1.56750   0.0480526
1.56800   0.0452822
1.56850   0.0429095
1.56900   0.0404135
1.56950   0.0385606
1.57000   0.0363062
1.57050   0.0345197
1.57100   0.0326705
1.57150   0.0310029
1.57200   0.0292731
1.57250   0.0277474
1.57300   0.0264758
1.57350   0.0250382
1.57400   0.0239994
1.57450   0.0229664
1.57500   0.0217584
1.57550   0.0207394
1.57600   0.0197254
1.57650   0.0187182
1.57700   0.0178844
1.57750   0.0170236
1.57800   0.0164375
1.57850   0.0153859
1.57900   0.0149239
1.57950   0.0142670
1.58000   0.0135734
1.58050   0.0129657
1.58100   0.0125832
1.58150   0.0118559
1.58200   0.0112958
1.58250   0.0110130
1.58300   0.0106110
1.58350   0.0101038
1.58400   0.00968589
1.58450   0.00918598
1.58500   0.00886537
1.58550   0.00855683
1.58600   0.00817080
1.58650   0.00789113
1.58700   0.00770557
1.58750   0.00728191
1.58800   0.00691894
1.58850   0.00683018
1.58900   0.00656124
1.58950   0.00624295
1.59000   0.00623777
1.59050   0.00590894
1.59100   0.00564017
1.59150   0.00544032
1.59200   0.00525905
1.59250   0.00520194
1.59300   0.00485058
1.59350   0.00474798
1.59400   0.00458325
1.59450   0.00451559
1.59500   0.00420624
1.59550   0.00422144
1.59600   0.00405358
1.59650   0.00376032
1.59700   0.00360114
1.59750   0.00356029
1.59800   0.00360114
1.59850   0.00346894
1.59900   0.00342801
1.59950   0.00309480
1.60000   0.00314378
1.60050   0.00336750
1.60100   0.00294982
1.60150   0.00284087
1.60200   0.00274585
1.60250   0.00258381
1.60300   0.00261500
1.60350   0.00247682
1.60400   0.00244563
1.60450   0.00237376
1.60500   0.00241434
1.60550   0.00237090
1.60600   0.00218812
1.60650   0.00212564
1.60700   0.00225614
1.60750   0.00216783
1.60800   0.00194608
1.60850   0.00182667
1.60900   0.00193902
1.60950   0.00178502
1.61000   0.00179297
1.61050   0.00184240
1.61100   0.00172576
1.61150   0.00150096
1.61200   0.00161698
1.61250   0.00161501
1.61300   0.00146879
1.61350   0.00152814
1.61400   0.00162127
1.61450   0.00156094
1.61500   0.00144787
1.61550   0.00142660
1.61600   0.00129888
1.61650   0.00112771
1.61700   0.00130254
1.61750   0.00128037
1.61800   0.00136439
1.61850   0.00103753
1.61900   0.00116463
1.61950   0.00118599
1.62000   0.00108061
1.62050   0.00124730
1.62100   0.00100598
1.62150   0.00128037
1.62200   0.00108088
1.62250   0.00103940
1.62300   0.00105058
1.62350   0.00105192
1.62400   0.00114541
1.62450   0.000976391
1.62500   0.000849829
1.62550   0.000850901
1.62600   0.000812468
1.62650   0.000707714
1.62700   0.000904351
1.62750   0.000974961
1.62800   0.000926964
1.62850   0.000918384
1.62900   0.000759912
1.62950   0.000801295
1.63000   0.000832310
1.63050   0.000793340
1.63100   0.000825249
1.63150   0.000747399
1.63200   0.000676252
1.63250   0.000858856
1.63300   0.000750706
1.63350   0.000659270
1.63400   0.000610826
1.63450   0.000722015
1.63500   0.000621283
1.63550   0.000622266
1.63600   0.000736584
1.63650   0.000614043
1.63700   0.000471571
1.63750   0.000482386
1.63800   0.000668118
1.63850   0.000627808
1.63900   0.000618512
1.63950   0.000506072
1.64000   0.000548170
1.64050   0.000538785
1.64100   0.000622266
1.64150   0.000467728
1.64200   0.000603139
1.64250   0.000489805
1.64300   0.000542897
1.64350   0.000449941
1.64400   0.000492575
1.64450   0.000419015
1.64500   0.000630668
1.64550   0.000493737
1.64600   0.000547097
1.64650   0.000654801
1.64700   0.000495972
1.64750   0.000477113
1.64800   0.000297458
1.64850   0.000520820
1.64900   0.000457896
1.64950   0.000413921
1.65000   0.000512775
1.65050   0.000436355
1.65100   0.000385945
1.65150   0.000354483
1.65200   0.000301480
1.65250   0.000481760
1.65300   0.000420714
1.65350   0.000313636
1.65400   0.000440556
1.65450   0.000408737
1.65500   0.000499636
1.65550   0.000562113
1.65600   0.000359845
1.65650   0.000502228
1.65700   0.000273683
1.65750   0.000274130
1.65800   0.000340450
1.65850   0.000369588
1.65900   0.000341880
1.65950   0.000414904
1.66000   0.000409630
1.66050   0.000460577
1.66100   0.000366817
1.66150   0.000478632
1.66200   0.000535389
1.66250   0.000313100
1.66300   0.000403552
1.66350   0.000353142
1.66400   0.000275292
1.66450   0.000444757
1.66500   0.000271448
1.66550   0.000396581
1.66600   0.000408737
1.66650   0.000307379
1.66700   0.000478811
1.66750   0.000274308
1.66800   0.000152840
1.66850   0.000550136
1.66900   0.000310239
1.66950   0.000149712
1.67000   0.000207631
1.67050   0.000150427
1.67100   0.000300765
1.67150   0.000327132
1.67200   0.000223362
1.67250   0.000371465
1.67300   0.000430009
1.67350   0.000244455
1.67400   0.000163566
1.67450   0.000513222
1.67500   0.000350460
1.67550   0.000187699
1.67600   2.50265e-06
1.67650   0.000316853
1.67700   0.000422769
1.67750   0.000129691
1.67800   0.000318194
1.67850   0.000259650
1.67900   0.000332674
1.67950   5.91698e-05
1.68000   1.22451e-05
1.68050   2.68141e-07
1.68100   7.15937e-05
1.68150   0.000476755
1.68200   0.000179297
1.68250   0.000215407
1.68300   0.000132015
1.68350   0.000252321
1.68400   0.000336964
1.68450   0.000277526
1.68500   0.000254019
1.68550   0.000181710
1.68600   0.000254645
1.68650   0.000279492
1.68700   0.000231495
1.68750   0.000280297
1.68800   0.000109402
1.68850   0.000159365
1.68900   0.000282174
1.68950   0.000158740
1.69000   0.000121915
1.69050   0.000171253
1.69100   0.000159008
1.69150   0.000196279
1.69200   2.49371e-05
1.69250   0.000196458
1.69300   0.000246154
1.69350   0.000159723
1.69400   2.51159e-05
1.69450   0.000159902
1.69500   0.000185107
1.69550   0.000125222
1.69600   5.99742e-05
1.69650   2.53840e-05
1.69700   0.000113245
1.69750   8.83078e-05
1.69800   1.78761e-07
1.69850   0.000101179
1.69900   2.52947e-05
1.69950   0.000114139
