# NIC1 TRANSMISSION PROFILE FOR f160w
# BASED ON nic1_f160w_003.tab FROM ftp://ftp.stsci.edu/cdbs/cdbs2/comp/nicmos
1.24050   0.000112047
1.24100   2.03722e-05
1.24150   0.00000
1.24200   0.00000
1.24250   5.09306e-06
1.24300   2.03722e-05
1.24350   0.00000
1.24400   4.27004e-08
1.24450   0.000102219
1.24500   1.52792e-05
1.24550   0.00000
1.24600   0.00000
1.24650   0.00000
1.24700   5.53981e-06
1.24750   1.54579e-05
1.24800   0.000102397
1.24850   0.00000
1.24900   4.10125e-05
1.24950   7.17495e-05
1.25000   3.07370e-05
1.25050   6.66565e-05
1.25100   0.00000
1.25150   1.02755e-05
1.25200   1.54579e-05
1.25250   4.62843e-05
1.25300   8.22037e-05
1.25350   5.09306e-06
1.25400   0.00000
1.25450   5.66491e-05
1.25500   0.00000
1.25550   2.58227e-05
1.25600   6.70139e-05
1.25650   3.09157e-05
1.25700   4.12806e-05
1.25750   2.58227e-05
1.25800   1.03648e-05
1.25850   2.58227e-05
1.25900   0.00000
1.25950   0.000108562
1.26000   5.16454e-05
1.26050   9.51329e-10
1.26100   0.00000
1.26150   4.66417e-05
1.26200   6.73713e-05
1.26250   0.00000
1.26300   0.00000
1.26350   6.07593e-06
1.26400   4.67310e-05
1.26450   0.00000
1.26500   0.00000
1.26550   0.00000
1.26600   1.56366e-05
1.26650   3.11838e-05
1.26700   0.00000
1.26750   1.56366e-05
1.26800   5.18241e-06
1.26850   1.56366e-05
1.26900   3.65449e-05
1.26950   7.83616e-05
1.27000   4.18167e-05
1.27050   0.00000
1.27100   0.00000
1.27150   0.00000
1.27200   5.27176e-06
1.27250   4.19060e-05
1.27300   6.81755e-05
1.27350   5.23602e-05
1.27400   0.00000
1.27450   3.68130e-05
1.27500   1.05435e-05
1.27550   5.25389e-05
1.27600   0.00000
1.27650   4.73565e-05
1.27700   3.16306e-05
1.27750   7.38046e-05
1.27800   1.58153e-05
1.27850   1.58153e-05
1.27900   2.64481e-05
1.27950   0.00000
1.28000   0.00000
1.28050   5.81681e-05
1.28100   4.76245e-05
1.28150   0.00000
1.28200   5.93296e-05
1.28250   0.00000
1.28300   0.00000
1.28350   6.37972e-05
1.28400   0.000196485
1.28450   0.00000
1.28500   0.00000
1.28550   5.86148e-05
1.28600   4.25315e-05
1.28650   0.00000
1.28700   7.47875e-05
1.28750   9.60532e-05
1.28800   0.00000
1.28850   1.59940e-05
1.28900   1.60833e-05
1.28950   9.10495e-05
1.29000   0.000112494
1.29050   0.00000
1.29100   1.61727e-05
1.29150   8.05954e-05
1.29200   5.90616e-05
1.29250   0.00000
1.29300   2.15338e-05
1.29350   6.46907e-05
1.29400   3.77065e-05
1.29450   3.77958e-05
1.29500   0.00000
1.29550   0.000156723
1.29600   0.000108205
1.29650   5.40579e-05
1.29700   0.00000
1.29750   2.17125e-05
1.29800   9.83764e-05
1.29850   3.80639e-05
1.29900   0.00000
1.29950   2.18019e-05
1.30000   3.82426e-05
1.30050   0.000180044
1.30100   9.83764e-05
1.30150   0.000147699
1.30200   0.000147877
1.30250   9.87338e-05
1.30300   5.49514e-05
1.30350   0.000131973
1.30400   0.000121161
1.30450   0.000126969
1.30500   0.000165837
1.30550   0.000144125
1.30600   0.000138853
1.30650   0.000127862
1.30700   8.90838e-05
1.30750   0.000144661
1.30800   0.000183261
1.30850   0.000204884
1.30900   0.000182010
1.30950   0.000148413
1.31000   0.000208100
1.31050   0.000219627
1.31100   0.000233476
1.31150   0.000200148
1.31200   0.000301652
1.31250   0.000308443
1.31300   0.000267519
1.31350   0.000208011
1.31400   0.000255189
1.31450   0.000268324
1.31500   0.000288964
1.31550   0.000342307
1.31600   0.000252240
1.31650   0.000214981
1.31700   0.000339984
1.31750   0.000302813
1.31800   0.000265822
1.31850   0.000275829
1.31900   0.000316931
1.31950   0.000285300
1.32000   0.000321309
1.32050   0.000227758
1.32100   0.000170662
1.32150   0.000346060
1.32200   0.000278867
1.32250   0.000314876
1.32300   0.000180759
1.32350   0.000315323
1.32400   0.000268324
1.32450   0.000294057
1.32500   0.000299239
1.32550   0.000361160
1.32600   0.000309694
1.32650   0.000242858
1.32700   0.000336052
1.32750   0.000294950
1.32800   0.000290036
1.32850   0.000290304
1.32900   0.000280207
1.32950   0.000379120
1.33000   0.000385196
1.33050   0.000296737
1.33100   0.000318003
1.33150   0.000433088
1.33200   0.000381354
1.33250   0.000428800
1.33300   0.000455426
1.33350   0.000456052
1.33400   0.000378137
1.33450   0.000362858
1.33500   0.000437199
1.33550   0.000438003
1.33600   0.000496618
1.33650   0.000439164
1.33700   0.000461056
1.33750   0.000504034
1.33800   0.000499656
1.33850   0.000479194
1.33900   0.000528159
1.33950   0.000635738
1.34000   0.000610452
1.34050   0.000589901
1.34100   0.000660936
1.34150   0.000737421
1.34200   0.000841426
1.34250   0.000800235
1.34300   0.000786475
1.34350   0.000892357
1.34400   0.000932923
1.34450   0.000973488
1.34500   0.00104792
1.34550   0.00106936
1.34600   0.00105936
1.34650   0.00123511
1.34700   0.00133054
1.34750   0.00129283
1.34800   0.00155258
1.34850   0.00154471
1.34900   0.00166480
1.34950   0.00183171
1.35000   0.00190051
1.35050   0.00202748
1.35100   0.00210075
1.35150   0.00222290
1.35200   0.00223183
1.35250   0.00251168
1.35300   0.00278858
1.35350   0.00303403
1.35400   0.00328538
1.35450   0.00339948
1.35500   0.00377101
1.35550   0.00399072
1.35600   0.00435349
1.35650   0.00479560
1.35700   0.00511003
1.35750   0.00546011
1.35800   0.00588462
1.35850   0.00639527
1.35900   0.00695542
1.35950   0.00731354
1.36000   0.00797662
1.36050   0.00862442
1.36100   0.00937774
1.36150   0.0100895
1.36200   0.0110372
1.36250   0.0117743
1.36300   0.0127153
1.36350   0.0135279
1.36400   0.0145822
1.36450   0.0157087
1.36500   0.0169989
1.36550   0.0181176
1.36600   0.0193758
1.36650   0.0204970
1.36700   0.0218662
1.36750   0.0232410
1.36800   0.0245057
1.36850   0.0262232
1.36900   0.0277580
1.36950   0.0292533
1.37000   0.0307623
1.37050   0.0323646
1.37100   0.0339658
1.37150   0.0356550
1.37200   0.0373014
1.37250   0.0390934
1.37300   0.0405719
1.37350   0.0423740
1.37400   0.0440233
1.37450   0.0458110
1.37500   0.0480070
1.37550   0.0498556
1.37600   0.0517027
1.37650   0.0538984
1.37700   0.0559314
1.37750   0.0583334
1.37800   0.0606805
1.37850   0.0632474
1.37900   0.0659259
1.37950   0.0686400
1.38000   0.0717128
1.38050   0.0749166
1.38100   0.0784792
1.38150   0.0825913
1.38200   0.0870121
1.38250   0.0913598
1.38300   0.0958651
1.38350   0.100964
1.38400   0.106682
1.38450   0.112535
1.38500   0.119057
1.38550   0.125685
1.38600   0.132601
1.38650   0.140263
1.38700   0.149083
1.38750   0.159182
1.38800   0.170282
1.38850   0.181586
1.38900   0.193674
1.38950   0.205903
1.39000   0.218522
1.39050   0.233104
1.39100   0.250773
1.39150   0.268497
1.39200   0.287556
1.39250   0.307084
1.39300   0.327694
1.39350   0.349323
1.39400   0.372589
1.39450   0.397537
1.39500   0.423266
1.39550   0.450764
1.39600   0.478061
1.39650   0.506436
1.39700   0.532430
1.39750   0.558561
1.39800   0.581831
1.39850   0.603561
1.39900   0.625793
1.39950   0.648516
1.40000   0.670190
1.40050   0.689779
1.40100   0.705236
1.40150   0.717662
1.40200   0.727458
1.40250   0.735510
1.40300   0.741151
1.40350   0.745418
1.40400   0.747887
1.40450   0.748711
1.40500   0.748121
1.40550   0.746572
1.40600   0.743750
1.40650   0.740295
1.40700   0.736348
1.40750   0.732055
1.40800   0.727863
1.40850   0.723185
1.40900   0.718737
1.40950   0.714499
1.41000   0.710084
1.41050   0.706447
1.41100   0.703219
1.41150   0.700646
1.41200   0.698146
1.41250   0.695945
1.41300   0.694190
1.41350   0.693311
1.41400   0.692619
1.41450   0.692423
1.41500   0.692655
1.41550   0.693459
1.41600   0.694907
1.41650   0.696407
1.41700   0.698526
1.41750   0.700910
1.41800   0.703850
1.41850   0.706932
1.41900   0.710671
1.41950   0.714857
1.42000   0.718975
1.42050   0.723214
1.42100   0.727599
1.42150   0.731833
1.42200   0.737067
1.42250   0.742230
1.42300   0.747195
1.42350   0.752354
1.42400   0.757335
1.42450   0.762666
1.42500   0.768067
1.42550   0.773109
1.42600   0.778217
1.42650   0.783054
1.42700   0.787643
1.42750   0.792267
1.42800   0.796944
1.42850   0.801354
1.42900   0.805405
1.42950   0.809148
1.43000   0.812517
1.43050   0.815935
1.43100   0.818896
1.43150   0.821819
1.43200   0.824505
1.43250   0.826898
1.43300   0.828886
1.43350   0.830708
1.43400   0.832245
1.43450   0.833679
1.43500   0.834938
1.43550   0.835684
1.43600   0.836619
1.43650   0.837150
1.43700   0.837512
1.43750   0.837747
1.43800   0.837979
1.43850   0.837570
1.43900   0.837593
1.43950   0.837254
1.44000   0.837093
1.44050   0.836639
1.44100   0.835875
1.44150   0.835718
1.44200   0.834870
1.44250   0.834155
1.44300   0.833587
1.44350   0.832984
1.44400   0.832268
1.44450   0.831664
1.44500   0.830898
1.44550   0.830143
1.44600   0.829486
1.44650   0.828963
1.44700   0.828264
1.44750   0.827743
1.44800   0.826924
1.44850   0.826306
1.44900   0.826046
1.44950   0.825410
1.45000   0.824959
1.45050   0.824729
1.45100   0.824231
1.45150   0.824048
1.45200   0.823861
1.45250   0.823414
1.45300   0.823301
1.45350   0.823306
1.45400   0.823083
1.45450   0.823020
1.45500   0.823162
1.45550   0.822861
1.45600   0.823082
1.45650   0.822991
1.45700   0.823294
1.45750   0.823435
1.45800   0.823388
1.45850   0.823679
1.45900   0.823875
1.45950   0.824010
1.46000   0.824325
1.46050   0.824752
1.46100   0.825070
1.46150   0.825282
1.46200   0.825529
1.46250   0.826135
1.46300   0.826618
1.46350   0.826856
1.46400   0.827512
1.46450   0.827827
1.46500   0.828345
1.46550   0.828989
1.46600   0.829668
1.46650   0.830118
1.46700   0.830730
1.46750   0.831377
1.46800   0.832111
1.46850   0.832689
1.46900   0.833413
1.46950   0.834219
1.47000   0.834955
1.47050   0.835637
1.47100   0.836221
1.47150   0.837132
1.47200   0.838021
1.47250   0.838716
1.47300   0.839519
1.47350   0.840522
1.47400   0.841245
1.47450   0.841892
1.47500   0.842770
1.47550   0.843530
1.47600   0.844626
1.47650   0.845408
1.47700   0.846220
1.47750   0.847018
1.47800   0.847871
1.47850   0.848794
1.47900   0.849534
1.47950   0.850064
1.48000   0.851044
1.48050   0.851662
1.48100   0.852444
1.48150   0.853123
1.48200   0.853683
1.48250   0.854211
1.48300   0.854799
1.48350   0.855473
1.48400   0.855886
1.48450   0.856578
1.48500   0.856925
1.48550   0.857349
1.48600   0.857742
1.48650   0.857874
1.48700   0.858364
1.48750   0.858482
1.48800   0.858527
1.48850   0.858638
1.48900   0.858940
1.48950   0.858865
1.49000   0.858870
1.49050   0.858777
1.49100   0.858765
1.49150   0.858534
1.49200   0.858376
1.49250   0.858156
1.49300   0.858085
1.49350   0.857684
1.49400   0.857578
1.49450   0.856909
1.49500   0.856454
1.49550   0.856185
1.49600   0.855765
1.49650   0.855349
1.49700   0.854656
1.49750   0.854243
1.49800   0.853705
1.49850   0.853228
1.49900   0.852639
1.49950   0.852262
1.50000   0.851675
1.50050   0.850962
1.50100   0.850606
1.50150   0.850218
1.50200   0.849224
1.50250   0.848716
1.50300   0.848271
1.50350   0.847733
1.50400   0.847156
1.50450   0.846685
1.50500   0.846060
1.50550   0.845866
1.50600   0.845421
1.50650   0.844795
1.50700   0.844565
1.50750   0.844089
1.50800   0.843440
1.50850   0.843539
1.50900   0.843176
1.50950   0.842826
1.51000   0.842707
1.51050   0.842313
1.51100   0.842157
1.51150   0.842218
1.51200   0.841820
1.51250   0.841911
1.51300   0.841700
1.51350   0.841404
1.51400   0.841580
1.51450   0.841157
1.51500   0.841376
1.51550   0.841335
1.51600   0.841408
1.51650   0.841418
1.51700   0.841409
1.51750   0.841393
1.51800   0.841621
1.51850   0.841853
1.51900   0.841714
1.51950   0.841843
1.52000   0.841997
1.52050   0.842054
1.52100   0.842297
1.52150   0.842462
1.52200   0.842346
1.52250   0.842433
1.52300   0.842510
1.52350   0.842691
1.52400   0.842705
1.52450   0.842539
1.52500   0.842709
1.52550   0.842750
1.52600   0.842960
1.52650   0.842684
1.52700   0.842836
1.52750   0.842557
1.52800   0.842653
1.52850   0.842652
1.52900   0.842557
1.52950   0.842371
1.53000   0.842428
1.53050   0.842022
1.53100   0.841937
1.53150   0.841674
1.53200   0.841494
1.53250   0.840961
1.53300   0.840905
1.53350   0.840709
1.53400   0.840383
1.53450   0.840051
1.53500   0.839641
1.53550   0.839334
1.53600   0.839022
1.53650   0.838600
1.53700   0.838133
1.53750   0.837498
1.53800   0.837281
1.53850   0.836817
1.53900   0.836372
1.53950   0.835752
1.54000   0.835422
1.54050   0.834979
1.54100   0.834533
1.54150   0.833893
1.54200   0.833587
1.54250   0.833336
1.54300   0.832676
1.54350   0.832174
1.54400   0.832037
1.54450   0.831610
1.54500   0.831213
1.54550   0.830793
1.54600   0.830487
1.54650   0.829960
1.54700   0.829659
1.54750   0.829357
1.54800   0.829039
1.54850   0.828952
1.54900   0.828628
1.54950   0.828528
1.55000   0.828243
1.55050   0.828114
1.55100   0.828227
1.55150   0.828111
1.55200   0.828064
1.55250   0.827928
1.55300   0.827988
1.55350   0.828228
1.55400   0.828045
1.55450   0.828182
1.55500   0.828419
1.55550   0.828768
1.55600   0.829160
1.55650   0.829249
1.55700   0.829437
1.55750   0.829948
1.55800   0.830419
1.55850   0.830755
1.55900   0.831374
1.55950   0.831650
1.56000   0.832345
1.56050   0.832797
1.56100   0.833536
1.56150   0.834303
1.56200   0.834941
1.56250   0.835551
1.56300   0.836335
1.56350   0.837015
1.56400   0.837901
1.56450   0.838570
1.56500   0.839438
1.56550   0.840399
1.56600   0.841100
1.56650   0.841916
1.56700   0.842662
1.56750   0.843855
1.56800   0.844608
1.56850   0.845593
1.56900   0.846576
1.56950   0.847150
1.57000   0.848108
1.57050   0.848914
1.57100   0.849646
1.57150   0.850487
1.57200   0.851298
1.57250   0.852095
1.57300   0.852849
1.57350   0.853590
1.57400   0.854500
1.57450   0.854958
1.57500   0.855793
1.57550   0.856472
1.57600   0.856855
1.57650   0.857378
1.57700   0.857991
1.57750   0.858562
1.57800   0.859122
1.57850   0.859372
1.57900   0.859831
1.57950   0.860200
1.58000   0.860339
1.58050   0.860428
1.58100   0.860578
1.58150   0.860854
1.58200   0.860791
1.58250   0.860565
1.58300   0.861059
1.58350   0.860667
1.58400   0.860254
1.58450   0.859992
1.58500   0.859817
1.58550   0.859372
1.58600   0.859049
1.58650   0.858533
1.58700   0.858038
1.58750   0.857398
1.58800   0.857086
1.58850   0.856161
1.58900   0.855531
1.58950   0.854686
1.59000   0.853809
1.59050   0.852939
1.59100   0.851922
1.59150   0.851460
1.59200   0.850406
1.59250   0.849456
1.59300   0.848242
1.59350   0.847290
1.59400   0.846134
1.59450   0.845144
1.59500   0.844267
1.59550   0.842827
1.59600   0.841600
1.59650   0.840397
1.59700   0.839237
1.59750   0.838223
1.59800   0.836998
1.59850   0.835683
1.59900   0.834698
1.59950   0.833204
1.60000   0.832134
1.60050   0.831207
1.60100   0.829966
1.60150   0.828811
1.60200   0.827617
1.60250   0.826472
1.60300   0.825320
1.60350   0.824214
1.60400   0.823230
1.60450   0.822096
1.60500   0.821188
1.60550   0.820250
1.60600   0.819320
1.60650   0.818473
1.60700   0.817490
1.60750   0.816781
1.60800   0.816087
1.60850   0.815470
1.60900   0.814549
1.60950   0.813959
1.61000   0.813231
1.61050   0.812743
1.61100   0.812371
1.61150   0.811919
1.61200   0.811083
1.61250   0.810914
1.61300   0.810623
1.61350   0.810334
1.61400   0.810322
1.61450   0.809830
1.61500   0.809922
1.61550   0.809678
1.61600   0.809999
1.61650   0.809745
1.61700   0.809766
1.61750   0.809673
1.61800   0.809906
1.61850   0.810177
1.61900   0.810432
1.61950   0.810612
1.62000   0.811156
1.62050   0.811504
1.62100   0.811913
1.62150   0.812231
1.62200   0.812845
1.62250   0.813404
1.62300   0.813788
1.62350   0.814484
1.62400   0.815096
1.62450   0.815556
1.62500   0.816414
1.62550   0.817156
1.62600   0.817895
1.62650   0.818658
1.62700   0.819485
1.62750   0.820393
1.62800   0.821023
1.62850   0.821869
1.62900   0.822857
1.62950   0.823661
1.63000   0.824512
1.63050   0.825658
1.63100   0.826356
1.63150   0.827293
1.63200   0.828108
1.63250   0.829191
1.63300   0.830122
1.63350   0.831208
1.63400   0.831959
1.63450   0.833014
1.63500   0.833707
1.63550   0.834652
1.63600   0.835765
1.63650   0.836424
1.63700   0.837350
1.63750   0.838320
1.63800   0.838847
1.63850   0.839609
1.63900   0.840885
1.63950   0.841499
1.64000   0.842529
1.64050   0.843308
1.64100   0.843823
1.64150   0.844709
1.64200   0.845580
1.64250   0.846068
1.64300   0.846683
1.64350   0.847482
1.64400   0.847899
1.64450   0.848779
1.64500   0.849207
1.64550   0.849850
1.64600   0.850550
1.64650   0.851013
1.64700   0.851412
1.64750   0.851912
1.64800   0.852496
1.64850   0.852822
1.64900   0.853060
1.64950   0.853622
1.65000   0.853859
1.65050   0.854129
1.65100   0.854589
1.65150   0.854831
1.65200   0.855063
1.65250   0.855296
1.65300   0.855530
1.65350   0.856043
1.65400   0.856036
1.65450   0.856437
1.65500   0.856340
1.65550   0.856546
1.65600   0.856859
1.65650   0.856700
1.65700   0.857034
1.65750   0.857132
1.65800   0.857186
1.65850   0.856919
1.65900   0.856935
1.65950   0.857200
1.66000   0.857036
1.66050   0.856932
1.66100   0.857310
1.66150   0.857175
1.66200   0.857162
1.66250   0.857022
1.66300   0.857047
1.66350   0.856932
1.66400   0.856834
1.66450   0.857134
1.66500   0.856923
1.66550   0.856748
1.66600   0.856440
1.66650   0.856589
1.66700   0.856694
1.66750   0.856403
1.66800   0.856290
1.66850   0.855988
1.66900   0.856025
1.66950   0.855866
1.67000   0.855631
1.67050   0.855464
1.67100   0.855343
1.67150   0.855232
1.67200   0.855038
1.67250   0.854674
1.67300   0.854501
1.67350   0.854254
1.67400   0.853976
1.67450   0.853923
1.67500   0.853795
1.67550   0.853019
1.67600   0.853122
1.67650   0.852846
1.67700   0.852560
1.67750   0.852434
1.67800   0.851890
1.67850   0.851599
1.67900   0.851387
1.67950   0.851202
1.68000   0.850822
1.68050   0.850210
1.68100   0.850075
1.68150   0.849565
1.68200   0.849273
1.68250   0.848427
1.68300   0.848306
1.68350   0.847829
1.68400   0.847455
1.68450   0.846946
1.68500   0.846656
1.68550   0.845957
1.68600   0.845537
1.68650   0.845145
1.68700   0.844667
1.68750   0.844162
1.68800   0.843665
1.68850   0.843009
1.68900   0.842444
1.68950   0.841626
1.69000   0.840878
1.69050   0.840203
1.69100   0.839646
1.69150   0.839224
1.69200   0.838453
1.69250   0.837827
1.69300   0.837147
1.69350   0.836277
1.69400   0.835340
1.69450   0.834655
1.69500   0.833864
1.69550   0.833135
1.69600   0.832153
1.69650   0.831214
1.69700   0.830410
1.69750   0.829398
1.69800   0.828475
1.69850   0.827461
1.69900   0.826393
1.69950   0.825865
1.70000   0.824372
1.70050   0.823375
1.70100   0.822417
1.70150   0.821448
1.70200   0.820042
1.70250   0.819163
1.70300   0.817657
1.70350   0.816316
1.70400   0.815163
1.70450   0.813935
1.70500   0.812649
1.70550   0.811402
1.70600   0.810066
1.70650   0.808567
1.70700   0.807293
1.70750   0.805811
1.70800   0.803947
1.70850   0.802577
1.70900   0.801117
1.70950   0.799394
1.71000   0.797827
1.71050   0.796180
1.71100   0.794578
1.71150   0.792840
1.71200   0.791269
1.71250   0.789313
1.71300   0.787606
1.71350   0.785640
1.71400   0.783955
1.71450   0.782269
1.71500   0.779805
1.71550   0.778286
1.71600   0.776523
1.71650   0.774280
1.71700   0.772430
1.71750   0.770470
1.71800   0.768412
1.71850   0.766582
1.71900   0.764502
1.71950   0.762520
1.72000   0.760397
1.72050   0.758321
1.72100   0.756194
1.72150   0.754454
1.72200   0.752249
1.72250   0.750412
1.72300   0.748020
1.72350   0.746014
1.72400   0.744267
1.72450   0.742241
1.72500   0.739958
1.72550   0.738295
1.72600   0.736326
1.72650   0.734212
1.72700   0.732331
1.72750   0.730663
1.72800   0.728808
1.72850   0.726876
1.72900   0.724919
1.72950   0.723183
1.73000   0.721564
1.73050   0.719881
1.73100   0.718453
1.73150   0.716894
1.73200   0.715403
1.73250   0.713699
1.73300   0.712514
1.73350   0.711084
1.73400   0.709830
1.73450   0.708688
1.73500   0.707523
1.73550   0.706243
1.73600   0.705285
1.73650   0.704660
1.73700   0.703873
1.73750   0.702928
1.73800   0.702453
1.73850   0.701594
1.73900   0.701101
1.73950   0.700708
1.74000   0.700861
1.74050   0.700162
1.74100   0.700221
1.74150   0.700110
1.74200   0.700165
1.74250   0.700223
1.74300   0.700697
1.74350   0.700927
1.74400   0.701511
1.74450   0.702144
1.74500   0.702817
1.74550   0.703494
1.74600   0.704476
1.74650   0.705389
1.74700   0.706312
1.74750   0.707696
1.74800   0.708988
1.74850   0.710585
1.74900   0.711928
1.74950   0.713498
1.75000   0.714842
1.75050   0.717392
1.75100   0.719267
1.75150   0.721648
1.75200   0.723392
1.75250   0.725524
1.75300   0.727964
1.75350   0.730261
1.75400   0.732874
1.75450   0.735666
1.75500   0.738222
1.75550   0.740961
1.75600   0.743563
1.75650   0.746497
1.75700   0.749458
1.75750   0.752689
1.75800   0.755743
1.75850   0.758996
1.75900   0.761763
1.75950   0.764868
1.76000   0.768463
1.76050   0.771630
1.76100   0.774929
1.76150   0.777904
1.76200   0.781004
1.76250   0.784250
1.76300   0.787307
1.76350   0.790477
1.76400   0.793646
1.76450   0.796306
1.76500   0.798870
1.76550   0.802479
1.76600   0.804674
1.76650   0.807491
1.76700   0.809712
1.76750   0.812281
1.76800   0.814190
1.76850   0.816220
1.76900   0.817836
1.76950   0.819594
1.77000   0.821166
1.77050   0.822217
1.77100   0.822944
1.77150   0.823935
1.77200   0.824108
1.77250   0.824344
1.77300   0.824017
1.77350   0.823719
1.77400   0.822869
1.77450   0.821838
1.77500   0.820288
1.77550   0.818537
1.77600   0.816450
1.77650   0.813663
1.77700   0.810760
1.77750   0.807563
1.77800   0.804308
1.77850   0.799987
1.77900   0.795728
1.77950   0.790372
1.78000   0.785156
1.78050   0.779581
1.78100   0.773354
1.78150   0.767054
1.78200   0.760038
1.78250   0.752260
1.78300   0.744283
1.78350   0.736277
1.78400   0.728061
1.78450   0.719145
1.78500   0.709499
1.78550   0.699198
1.78600   0.689092
1.78650   0.678652
1.78700   0.668032
1.78750   0.656754
1.78800   0.645713
1.78850   0.633199
1.78900   0.621037
1.78950   0.608564
1.79000   0.596365
1.79050   0.584000
1.79100   0.570461
1.79150   0.557223
1.79200   0.543168
1.79250   0.529421
1.79300   0.516060
1.79350   0.502600
1.79400   0.488640
1.79450   0.474688
1.79500   0.460536
1.79550   0.445979
1.79600   0.432304
1.79650   0.418626
1.79700   0.405122
1.79750   0.391556
1.79800   0.378296
1.79850   0.364418
1.79900   0.351126
1.79950   0.338177
1.80000   0.325713
1.80050   0.313486
1.80100   0.301080
1.80150   0.288475
1.80200   0.276336
1.80250   0.265399
1.80300   0.254380
1.80350   0.244290
1.80400   0.234107
1.80450   0.223778
1.80500   0.213691
1.80550   0.204493
1.80600   0.195385
1.80650   0.186620
1.80700   0.177940
1.80750   0.169910
1.80800   0.161650
1.80850   0.154684
1.80900   0.147631
1.80950   0.140998
1.81000   0.134302
1.81050   0.128235
1.81100   0.121614
1.81150   0.115711
1.81200   0.110139
1.81250   0.105324
1.81300   0.100680
1.81350   0.0954240
1.81400   0.0910896
1.81450   0.0870571
1.81500   0.0828416
1.81550   0.0787139
1.81600   0.0745542
1.81650   0.0714418
1.81700   0.0682734
1.81750   0.0649654
1.81800   0.0618884
1.81850   0.0594443
1.81900   0.0566172
1.81950   0.0540265
1.82000   0.0515213
1.82050   0.0492527
1.82100   0.0462850
1.82150   0.0442050
1.82200   0.0425217
1.82250   0.0402780
1.82300   0.0390443
1.82350   0.0367647
1.82400   0.0354564
1.82450   0.0340614
1.82500   0.0322933
1.82550   0.0310764
1.82600   0.0287882
1.82650   0.0280950
1.82700   0.0270527
1.82750   0.0258834
1.82800   0.0249744
1.82850   0.0241296
1.82900   0.0231224
1.82950   0.0220306
1.83000   0.0211775
1.83050   0.0199034
1.83100   0.0189079
1.83150   0.0187877
1.83200   0.0175879
1.83250   0.0170995
1.83300   0.0163287
1.83350   0.0157970
1.83400   0.0148190
1.83450   0.0145163
1.83500   0.0141061
1.83550   0.0136772
1.83600   0.0131735
1.83650   0.0124689
1.83700   0.0119080
1.83750   0.0113510
1.83800   0.0108822
1.83850   0.0107343
1.83900   0.0101029
1.83950   0.0103034
1.84000   0.00935657
1.84050   0.00929054
1.84100   0.00865051
1.84150   0.00835869
1.84200   0.00793007
1.84250   0.00799619
1.84300   0.00778469
1.84350   0.00730514
1.84400   0.00761912
1.84450   0.00797019
1.84500   0.00650741
1.84550   0.00634997
1.84600   0.00633656
1.84650   0.00578723
1.84700   0.00600444
1.84750   0.00586461
1.84800   0.00543572
1.84850   0.00501425
1.84900   0.00520564
1.84950   0.00463897
1.85000   0.00503292
1.85050   0.00429899
1.85100   0.00463513
1.85150   0.00438807
1.85200   0.00453881
1.85250   0.00388466
1.85300   0.00417220
1.85350   0.00399671
1.85400   0.00463629
1.85450   0.00375876
1.85500   0.00321515
1.85550   0.00355218
1.85600   0.00352681
1.85650   0.00367620
1.85700   0.00329869
1.85750   0.00329842
1.85800   0.00297640
1.85850   0.00309175
1.85900   0.00290108
1.85950   0.00270700
1.86000   0.00263615
1.86050   0.00245155
1.86100   0.00250275
1.86150   0.00207368
1.86200   0.00263570
1.86250   0.00241572
1.86300   0.00191642
1.86350   0.00315734
1.86400   0.00235782
1.86450   0.00238998
1.86500   0.00274033
1.86550   0.00225730
1.86600   0.00195707
1.86650   0.00202310
1.86700   0.00181116
1.86750   0.00184270
1.86800   0.00194832
1.86850   0.00205339
1.86900   0.00190096
1.86950   0.00159323
1.87000   0.00196672
1.87050   0.00164095
1.87100   0.00120759
1.87150   0.00166891
1.87200   0.00160941
1.87250   0.00156259
1.87300   0.00155017
1.87350   0.00153489
1.87400   0.00180303
1.87450   0.00148539
1.87500   0.00138290
1.87550   0.00158385
1.87600   0.00170269
1.87650   0.00132580
1.87700   0.00171010
1.87750   0.00159395
1.87800   0.00167454
1.87850   0.000875112
1.87900   0.000723839
1.87950   0.00128461
1.88000   0.00152720
1.88050   0.00127451
1.88100   0.00117793
1.88150   0.00132294
1.88200   0.00112503
1.88250   0.00116068
1.88300   0.00122555
1.88350   0.00119767
1.88400   0.00116836
1.88450   0.000890659
1.88500   0.000738314
1.88550   0.00113781
1.88600   0.00103612
1.88650   0.00119991
1.88700   0.00101924
1.88750   0.000908619
1.88800   0.000870823
1.88850   0.000971076
1.88900   0.00102040
1.88950   0.000844018
1.89000   0.000968127
1.89050   0.00106793
1.89100   0.000618404
1.89150   0.000593654
1.89200   0.000715083
1.89250   0.000507340
1.89300   0.000922915
1.89350   0.000915588
1.89400   0.000885030
1.89450   0.000608397
1.89500   0.000848753
1.89550   0.000681576
1.89600   0.000973399
1.89650   0.000401815
1.89700   0.000880652
1.89750   0.000214712
1.89800   0.000828024
1.89850   0.000774055
1.89900   0.000612507
1.89950   0.000230975
1.90000   0.000793534
1.90050   0.000667726
1.90100   0.000383319
1.90150   0.000701680
1.90200   0.000811404
1.90250   0.000793713
1.90300   0.00000
1.90350   0.00103318
1.90400   0.000429336
1.90450   0.000209530
1.90500   0.000693549
1.90550   0.000634398
1.90600   0.000628143
1.90650   0.000556037
1.90700   0.000443900
1.90750   0.000373312
1.90800   0.000446581
1.90850   0.000725984
1.90900   0.000494741
1.90950   0.000424779
1.91000   0.000603214
1.91050   0.000737599
1.91100   0.000704182
1.91150   0.000510824
1.91200   0.000201756
1.91250   0.000203901
1.91300   0.00000
1.91350   0.000551033
1.91400   0.000634845
1.91450   0.000366700
1.91500   0.000443453
1.91550   0.000546208
1.91600   0.000512701
1.91650   0.000452656
1.91700   0.000291287
1.91750   0.00000
1.91800   0.000299239
1.91850   0.000565776
1.91900   0.000385106
1.91950   6.29931e-05
1.92000   0.000404406
1.92050   0.00000
1.92100   0.000350170
1.92150   0.000797108
1.92200   0.000331674
1.92250   0.000273238
1.92300   0.000493222
1.92350   0.000388234
1.92400   0.000248756
1.92450   0.000283245
1.92500   8.17569e-05
1.92550   0.000109277
1.92600   0.000501175
1.92650   0.000167177
1.92700   0.00000
1.92750   0.000989125
1.92800   0.000547816
1.92850   0.00000
1.92900   0.000252508
1.92950   0.000390557
1.93000   0.00000
1.93050   0.00000
1.93100   0.000191838
1.93150   0.00000
1.93200   0.000255457
1.93250   0.000118927
1.93300   0.00112503
1.93350   0.000880205
1.93400   0.000166016
1.93450   0.000303975
1.93500   0.000277169
1.93550   0.000111779
1.93600   0.000224273
1.93650   0.000196663
1.93700   2.87713e-05
1.93750   0.000396901
1.93800   5.68278e-05
1.93850   0.000114013
1.93900   0.000341503
1.93950   0.000254921
1.94000   0.000393684
1.94050   0.000426476
1.94100   0.000118481
1.94150   0.000165480
1.94200   0.00000
1.94250   0.000249113
1.94300   0.000581949
1.94350   0.00000
1.94400   0.000168250
1.94450   0.000224720
1.94500   0.000287534
1.94550   0.00000
1.94600   0.000391093
1.94650   0.000195323
1.94700   0.00000
1.94750   8.44375e-05
1.94800   0.00100601
1.94850   0.00000
1.94900   2.68056e-07
1.94950   2.81458e-05
1.95000   0.000175308
1.95050   0.00000
1.95100   0.000168250
1.95150   0.000252866
1.95200   0.000168964
1.95250   0.00000
1.95300   0.00000
1.95350   0.000171019
1.95400   0.000398331
1.95450   0.000290840
1.95500   5.69171e-05
1.95550   0.00000
1.95600   0.00000
1.95650   0.00000
1.95700   0.000228562
1.95750   8.58671e-05
1.95800   0.000342486
1.95850   0.000114370
1.95900   0.000114728
1.95950   9.16750e-05
1.96000   0.000430587
1.96050   0.000143767
1.96100   0.000259299
1.96150   0.000202203
1.96200   0.00000
1.96250   0.00000
1.96300   0.00000
1.96350   0.00000
1.96400   0.000149932
1.96450   0.00000
1.96500   0.000207922
1.96550   8.70287e-05
1.96600   0.00000
1.96650   0.00000
1.96700   0.000667994
1.96750   0.000524049
1.96800   0.000233298
1.96850   0.000116783
1.96900   0.00000
1.96950   0.000234459
1.97000   0.000176649
1.97050   0.000209083
1.97100   0.000117408
1.97150   0.00000
1.97200   0.000589901
1.97250   6.27250e-05
1.97300   0.00000
1.97350   0.00000
1.97400   0.00000
1.97450   0.000148324
1.97500   8.93518e-08
1.97550   0.000566759
1.97600   0.000178614
1.97650   0.000208637
1.97700   0.000208905
1.97750   0.00000
1.97800   0.000179687
1.97850   0.000179955
1.97900   0.00000
1.97950   0.00000
1.98000   0.00000
1.98050   0.00000
1.98100   0.00000
1.98150   0.00000
1.98200   0.000272076
1.98250   0.00000
1.98300   3.03796e-05
1.98350   0.00000
1.98400   0.00000
1.98450   0.00000
1.98500   0.00000
1.98550   0.000397258
1.98600   0.000641100
1.98650   6.14741e-05
1.98700   0.000153775
1.98750   9.21218e-05
1.98800   0.00000
1.98850   3.07370e-05
1.98900   0.00000
1.98950   3.01116e-05
1.99000   6.11167e-05
1.99050   6.19208e-05
1.99100   0.00000
1.99150   0.00000
1.99200   0.00000
1.99250   0.000248845
1.99300   0.00000
1.99350   0.000155919
1.99400   0.00000
1.99450   0.00000
1.99500   0.00000
1.99550   3.16306e-05
1.99600   0.000157438
1.99650   0.00000
1.99700   6.31718e-05
1.99750   0.00000
1.99800   0.00000
1.99850   6.33505e-05
1.99900   0.00000
1.99950   0.00000
2.00000   8.73861e-05
2.00050   0.00000
2.00100   0.000233655
