# NIC1 TRANSMISSION PROFILE FOR f140w
# BASED ON nic1_f140w_003.tab FROM ftp://ftp.stsci.edu/cdbs/cdbs2/comp/nicmos
0.873000   0.000106125
0.873500   4.40352e-06
0.874000   6.42914e-06
0.874500   4.35068e-05
0.875000   0.00125765
0.875500   0.000415604
0.876000   0.000410056
0.876500   0.000289311
0.877000   0.00000
0.877500   0.00000
0.878000   0.00000
0.878500   0.000331497
0.879000   1.39151e-05
0.879500   0.00000
0.880000   0.00000
0.880500   0.00000
0.881000   0.000688711
0.881500   0.00000
0.882000   0.00000
0.882500   0.000599936
0.883000   6.42033e-05
0.883500   0.00000
0.884000   0.000338543
0.884500   0.00000
0.885000   0.000581529
0.885500   0.000295564
0.886000   0.000138006
0.886500   0.000153419
0.887000   0.000420801
0.887500   0.00000
0.888000   0.00000
0.888500   0.000693643
0.889000   0.00000
0.889500   0.000228895
0.890000   3.52282e-07
0.890500   0.00000
0.891000   0.000571313
0.891500   8.21697e-05
0.892000   0.00000
0.892500   0.00000
0.893000   0.00000
0.893500   0.000461577
0.894000   0.000209343
0.894500   0.00000
0.895000   0.000576509
0.895500   0.000570873
0.896000   0.00000
0.896500   0.00000
0.897000   0.00000
0.897500   0.000492754
0.898000   0.00000
0.898500   0.000206261
0.899000   0.000156149
0.899500   0.00000
0.900000   0.00000
0.900500   0.000152362
0.901000   5.38110e-05
0.901500   0.00000
0.902000   0.00000
0.902500   3.21457e-05
0.903000   6.32346e-05
0.903500   0.00000
0.904000   0.00000
0.904500   0.000210841
0.905000   0.00000
0.905500   0.000169448
0.906000   1.40913e-06
0.906500   0.00000
0.907000   2.90632e-05
0.907500   0.00000
0.908000   0.00000
0.908500   0.000244219
0.909000   0.000219295
0.909500   0.000131401
0.910000   0.00000
0.910500   0.000182570
0.911000   0.000131753
0.911500   0.00000
0.912000   0.000307014
0.912500   0.00000
0.913000   0.00000
0.913500   0.000177286
0.914000   0.00000
0.914500   0.000368311
0.915000   0.000194371
0.915500   0.000192962
0.916000   0.00000
0.916500   0.000118807
0.917000   0.000117838
0.917500   0.00000
0.918000   0.000572986
0.918500   4.59728e-05
0.919000   0.000138094
0.919500   0.000159408
0.920000   0.000133515
0.920500   0.000394291
0.921000   0.000499359
0.921500   9.10648e-05
0.922000   0.000362498
0.922500   0.000254171
0.923000   0.000653483
0.923500   0.000378174
0.924000   7.92634e-07
0.924500   0.000367342
0.925000   0.000504908
0.925500   0.00000
0.926000   0.000304812
0.926500   0.000374387
0.927000   7.93515e-05
0.927500   0.000471617
0.928000   0.000563739
0.928500   3.93675e-05
0.929000   0.000208463
0.929500   0.000467830
0.930000   0.000260336
0.930500   0.000461137
0.931000   0.000293715
0.931500   0.000418070
0.932000   0.000577126
0.932500   0.000286845
0.933000   0.000596413
0.933500   0.000786469
0.934000   0.000684043
0.934500   0.000279007
0.935000   0.000381609
0.935500   0.000396141
0.936000   0.000609359
0.936500   0.000543659
0.937000   0.000574219
0.937500   0.00100532
0.938000   0.000317494
0.938500   0.000414107
0.939000   0.000996693
0.939500   0.00105869
0.940000   0.00101616
0.940500   0.00102673
0.941000   0.00116869
0.941500   0.00111233
0.942000   0.00123457
0.942500   0.00162287
0.943000   0.00151974
0.943500   0.00155929
0.944000   0.00196961
0.944500   0.00167915
0.945000   0.00179153
0.945500   0.00188506
0.946000   0.00211387
0.946500   0.00204086
0.947000   0.00216327
0.947500   0.00260900
0.948000   0.00216970
0.948500   0.00243286
0.949000   0.00260574
0.949500   0.00280927
0.950000   0.00267822
0.950500   0.00304592
0.951000   0.00316657
0.951500   0.00332070
0.952000   0.00330960
0.952500   0.00360860
0.953000   0.00375427
0.953500   0.00377479
0.954000   0.00407837
0.954500   0.00408022
0.955000   0.00404067
0.955500   0.00448323
0.956000   0.00441726
0.956500   0.00486730
0.957000   0.00500997
0.957500   0.00541528
0.958000   0.00539669
0.958500   0.00574431
0.959000   0.00597840
0.959500   0.00608223
0.960000   0.00632205
0.960500   0.00675403
0.961000   0.00665566
0.961500   0.00723534
0.962000   0.00745992
0.962500   0.00747542
0.963000   0.00816290
0.963500   0.00842535
0.964000   0.00894003
0.964500   0.00947198
0.965000   0.00952235
0.965500   0.0100955
0.966000   0.0108150
0.966500   0.0113158
0.967000   0.0118242
0.967500   0.0119489
0.968000   0.0131666
0.968500   0.0135158
0.969000   0.0144082
0.969500   0.0150190
0.970000   0.0160904
0.970500   0.0168335
0.971000   0.0178678
0.971500   0.0188438
0.972000   0.0198328
0.972500   0.0208222
0.973000   0.0220468
0.973500   0.0233616
0.974000   0.0248152
0.974500   0.0261718
0.975000   0.0279706
0.975500   0.0291906
0.976000   0.0309826
0.976500   0.0329543
0.977000   0.0350814
0.977500   0.0373719
0.978000   0.0395844
0.978500   0.0420779
0.979000   0.0445562
0.979500   0.0474620
0.980000   0.0506586
0.980500   0.0542339
0.981000   0.0574807
0.981500   0.0609753
0.982000   0.0652599
0.982500   0.0693178
0.983000   0.0738582
0.983500   0.0789212
0.984000   0.0840669
0.984500   0.0897210
0.985000   0.0952289
0.985500   0.101465
0.986000   0.108260
0.986500   0.115642
0.987000   0.123461
0.987500   0.131231
0.988000   0.139694
0.988500   0.148260
0.989000   0.157973
0.989500   0.168511
0.990000   0.179045
0.990500   0.190014
0.991000   0.201664
0.991500   0.213582
0.992000   0.226101
0.992500   0.239621
0.993000   0.254230
0.993500   0.268327
0.994000   0.282918
0.994500   0.297961
0.995000   0.313705
0.995500   0.329793
0.996000   0.346501
0.996500   0.363740
0.997000   0.380412
0.997500   0.396973
0.998000   0.414769
0.998500   0.432237
0.999000   0.450753
0.999500   0.468549
1.00000   0.486049
1.00050   0.502759
1.00100   0.520246
1.00150   0.537415
1.00200   0.554399
1.00250   0.571466
1.00300   0.587400
1.00350   0.602406
1.00400   0.617249
1.00450   0.631452
1.00500   0.645140
1.00550   0.658394
1.00600   0.671314
1.00650   0.682319
1.00700   0.692920
1.00750   0.702642
1.00800   0.712032
1.00850   0.720699
1.00900   0.728476
1.00950   0.734985
1.01000   0.740683
1.01050   0.745708
1.01100   0.750103
1.01150   0.753785
1.01200   0.756755
1.01250   0.759273
1.01300   0.760688
1.01350   0.761812
1.01400   0.761881
1.01450   0.761977
1.01500   0.761423
1.01550   0.760403
1.01600   0.758921
1.01650   0.756883
1.01700   0.754970
1.01750   0.752730
1.01800   0.750096
1.01850   0.747171
1.01900   0.743980
1.01950   0.741079
1.02000   0.737964
1.02050   0.734742
1.02100   0.731451
1.02150   0.728175
1.02200   0.725007
1.02250   0.721811
1.02300   0.718725
1.02350   0.715675
1.02400   0.712844
1.02450   0.709913
1.02500   0.707206
1.02550   0.704767
1.02600   0.702571
1.02650   0.700344
1.02700   0.698307
1.02750   0.696495
1.02800   0.694877
1.02850   0.693463
1.02900   0.692248
1.02950   0.691186
1.03000   0.690339
1.03050   0.689887
1.03100   0.689321
1.03150   0.688966
1.03200   0.688657
1.03250   0.689107
1.03300   0.689227
1.03350   0.689754
1.03400   0.690360
1.03450   0.691088
1.03500   0.692214
1.03550   0.693229
1.03600   0.694388
1.03650   0.695913
1.03700   0.697235
1.03750   0.699169
1.03800   0.700888
1.03850   0.702726
1.03900   0.704500
1.03950   0.706618
1.04000   0.708429
1.04050   0.710631
1.04100   0.712955
1.04150   0.715122
1.04200   0.717534
1.04250   0.719613
1.04300   0.722069
1.04350   0.724477
1.04400   0.726876
1.04450   0.729212
1.04500   0.731330
1.04550   0.733465
1.04600   0.735797
1.04650   0.737895
1.04700   0.740298
1.04750   0.742125
1.04800   0.744111
1.04850   0.745840
1.04900   0.747730
1.04950   0.749436
1.05000   0.751360
1.05050   0.752697
1.05100   0.754339
1.05150   0.755567
1.05200   0.756796
1.05250   0.758031
1.05300   0.759161
1.05350   0.760244
1.05400   0.760939
1.05450   0.761713
1.05500   0.762563
1.05550   0.763046
1.05600   0.763676
1.05650   0.764211
1.05700   0.764411
1.05750   0.764866
1.05800   0.765242
1.05850   0.765296
1.05900   0.765384
1.05950   0.765497
1.06000   0.765627
1.06050   0.765748
1.06100   0.765562
1.06150   0.765628
1.06200   0.765478
1.06250   0.765407
1.06300   0.765097
1.06350   0.765105
1.06400   0.764953
1.06450   0.764733
1.06500   0.764833
1.06550   0.764613
1.06600   0.764351
1.06650   0.764463
1.06700   0.764371
1.06750   0.764339
1.06800   0.764354
1.06850   0.764403
1.06900   0.764389
1.06950   0.764290
1.07000   0.764583
1.07050   0.765121
1.07100   0.764917
1.07150   0.765010
1.07200   0.765545
1.07250   0.765719
1.07300   0.766312
1.07350   0.766629
1.07400   0.767127
1.07450   0.767513
1.07500   0.768187
1.07550   0.768717
1.07600   0.769108
1.07650   0.769652
1.07700   0.770488
1.07750   0.771122
1.07800   0.771987
1.07850   0.772728
1.07900   0.773447
1.07950   0.774254
1.08000   0.775042
1.08050   0.776089
1.08100   0.776929
1.08150   0.777984
1.08200   0.778878
1.08250   0.779632
1.08300   0.780731
1.08350   0.781619
1.08400   0.782736
1.08450   0.783691
1.08500   0.784556
1.08550   0.785182
1.08600   0.786488
1.08650   0.786976
1.08700   0.788016
1.08750   0.788958
1.08800   0.789986
1.08850   0.790796
1.08900   0.791672
1.08950   0.792589
1.09000   0.793498
1.09050   0.794296
1.09100   0.795093
1.09150   0.795887
1.09200   0.796534
1.09250   0.797353
1.09300   0.798210
1.09350   0.798987
1.09400   0.799714
1.09450   0.800427
1.09500   0.801027
1.09550   0.801712
1.09600   0.802348
1.09650   0.802859
1.09700   0.803425
1.09750   0.804182
1.09800   0.804532
1.09850   0.805145
1.09900   0.805511
1.09950   0.806086
1.10000   0.806452
1.10050   0.806828
1.10100   0.807168
1.10150   0.807782
1.10200   0.807885
1.10250   0.808215
1.10300   0.808896
1.10350   0.809112
1.10400   0.809266
1.10450   0.809856
1.10500   0.810071
1.10550   0.810284
1.10600   0.810725
1.10650   0.811037
1.10700   0.811241
1.10750   0.811529
1.10800   0.811837
1.10850   0.811954
1.10900   0.812215
1.10950   0.812313
1.11000   0.812667
1.11050   0.812788
1.11100   0.812931
1.11150   0.813409
1.11200   0.813532
1.11250   0.813694
1.11300   0.814081
1.11350   0.814345
1.11400   0.814201
1.11450   0.814566
1.11500   0.814847
1.11550   0.815060
1.11600   0.815031
1.11650   0.815447
1.11700   0.815826
1.11750   0.815584
1.11800   0.815805
1.11850   0.816148
1.11900   0.816443
1.11950   0.816156
1.12000   0.816630
1.12050   0.816723
1.12100   0.816691
1.12150   0.816997
1.12200   0.816835
1.12250   0.817141
1.12300   0.817231
1.12350   0.817376
1.12400   0.817410
1.12450   0.817331
1.12500   0.817712
1.12550   0.817694
1.12600   0.817776
1.12650   0.817771
1.12700   0.817946
1.12750   0.817970
1.12800   0.817864
1.12850   0.818043
1.12900   0.818035
1.12950   0.818091
1.13000   0.817875
1.13050   0.818034
1.13100   0.817899
1.13150   0.817797
1.13200   0.817911
1.13250   0.817883
1.13300   0.817916
1.13350   0.817682
1.13400   0.817953
1.13450   0.817665
1.13500   0.817506
1.13550   0.817178
1.13600   0.817407
1.13650   0.817301
1.13700   0.817543
1.13750   0.817233
1.13800   0.817337
1.13850   0.816860
1.13900   0.817077
1.13950   0.816887
1.14000   0.816679
1.14050   0.816531
1.14100   0.816472
1.14150   0.816398
1.14200   0.816264
1.14250   0.816167
1.14300   0.816086
1.14350   0.815976
1.14400   0.815933
1.14450   0.815695
1.14500   0.815605
1.14550   0.815609
1.14600   0.815418
1.14650   0.815229
1.14700   0.815075
1.14750   0.815137
1.14800   0.815022
1.14850   0.815028
1.14900   0.814635
1.14950   0.814891
1.15000   0.814571
1.15050   0.814552
1.15100   0.814737
1.15150   0.814493
1.15200   0.814322
1.15250   0.814269
1.15300   0.814205
1.15350   0.813974
1.15400   0.814165
1.15450   0.813930
1.15500   0.813785
1.15550   0.813825
1.15600   0.814002
1.15650   0.813863
1.15700   0.813887
1.15750   0.813577
1.15800   0.813958
1.15850   0.813721
1.15900   0.813830
1.15950   0.813792
1.16000   0.813747
1.16050   0.813429
1.16100   0.813515
1.16150   0.813279
1.16200   0.813471
1.16250   0.813472
1.16300   0.813302
1.16350   0.813337
1.16400   0.813255
1.16450   0.812979
1.16500   0.813229
1.16550   0.813132
1.16600   0.813001
1.16650   0.813057
1.16700   0.812837
1.16750   0.812648
1.16800   0.812764
1.16850   0.812630
1.16900   0.812617
1.16950   0.812552
1.17000   0.812434
1.17050   0.812131
1.17100   0.812275
1.17150   0.812285
1.17200   0.812091
1.17250   0.811926
1.17300   0.811596
1.17350   0.811661
1.17400   0.811419
1.17450   0.811167
1.17500   0.811470
1.17550   0.811164
1.17600   0.811169
1.17650   0.811073
1.17700   0.810812
1.17750   0.810462
1.17800   0.810678
1.17850   0.810371
1.17900   0.810407
1.17950   0.810381
1.18000   0.810160
1.18050   0.810541
1.18100   0.809853
1.18150   0.810059
1.18200   0.809931
1.18250   0.809900
1.18300   0.809805
1.18350   0.809692
1.18400   0.809443
1.18450   0.809554
1.18500   0.809668
1.18550   0.809462
1.18600   0.809433
1.18650   0.809408
1.18700   0.809612
1.18750   0.809604
1.18800   0.809561
1.18850   0.809752
1.18900   0.810045
1.18950   0.809909
1.19000   0.810102
1.19050   0.810238
1.19100   0.810445
1.19150   0.810400
1.19200   0.810721
1.19250   0.810947
1.19300   0.811137
1.19350   0.811416
1.19400   0.812103
1.19450   0.811955
1.19500   0.812248
1.19550   0.812504
1.19600   0.813095
1.19650   0.813396
1.19700   0.813536
1.19750   0.814183
1.19800   0.814201
1.19850   0.814785
1.19900   0.815400
1.19950   0.815905
1.20000   0.816488
1.20050   0.816791
1.20100   0.817567
1.20150   0.818075
1.20200   0.818570
1.20250   0.819261
1.20300   0.819865
1.20350   0.820380
1.20400   0.821175
1.20450   0.821670
1.20500   0.822407
1.20550   0.823213
1.20600   0.823366
1.20650   0.824247
1.20700   0.825016
1.20750   0.825832
1.20800   0.826241
1.20850   0.826929
1.20900   0.827844
1.20950   0.828544
1.21000   0.828961
1.21050   0.829922
1.21100   0.830525
1.21150   0.831165
1.21200   0.831765
1.21250   0.832418
1.21300   0.833070
1.21350   0.833514
1.21400   0.834445
1.21450   0.834874
1.21500   0.835608
1.21550   0.836158
1.21600   0.836635
1.21650   0.837228
1.21700   0.837572
1.21750   0.838226
1.21800   0.838581
1.21850   0.838701
1.21900   0.839154
1.21950   0.839503
1.22000   0.839694
1.22050   0.839931
1.22100   0.840379
1.22150   0.840522
1.22200   0.840648
1.22250   0.840828
1.22300   0.840610
1.22350   0.840859
1.22400   0.841033
1.22450   0.840853
1.22500   0.840981
1.22550   0.840602
1.22600   0.840721
1.22650   0.840632
1.22700   0.839908
1.22750   0.839845
1.22800   0.839351
1.22850   0.838908
1.22900   0.838412
1.22950   0.837785
1.23000   0.837085
1.23050   0.836708
1.23100   0.836156
1.23150   0.835465
1.23300   0.833016
1.23350   0.832125
1.23400   0.831108
1.23450   0.830253
1.23500   0.829296
1.23550   0.828061
1.23600   0.827168
1.23650   0.825951
1.23700   0.824644
1.23750   0.823525
1.23800   0.822338
1.23850   0.821109
1.23900   0.819543
1.23950   0.818414
1.24000   0.817108
1.24050   0.815712
1.24100   0.814345
1.24150   0.813033
1.24200   0.811473
1.24250   0.809972
1.24300   0.808561
1.24350   0.807170
1.24400   0.805651
1.24450   0.804268
1.24500   0.802797
1.24550   0.801293
1.24600   0.799557
1.24650   0.798273
1.24700   0.796700
1.24750   0.795362
1.24800   0.794103
1.24850   0.792474
1.24900   0.790883
1.24950   0.789663
1.25000   0.788171
1.25050   0.786611
1.25100   0.785276
1.25150   0.783699
1.25200   0.782329
1.25250   0.781113
1.25300   0.779635
1.25350   0.778517
1.25400   0.777219
1.25450   0.775891
1.25500   0.774676
1.25550   0.773592
1.25600   0.772348
1.25650   0.771122
1.25700   0.770175
1.25750   0.769072
1.25800   0.767896
1.25850   0.766841
1.25900   0.765824
1.25950   0.764889
1.26000   0.763980
1.26050   0.763228
1.26100   0.762256
1.26150   0.761439
1.26200   0.760590
1.26250   0.759994
1.26300   0.759256
1.26350   0.758712
1.26400   0.758118
1.26450   0.757435
1.26500   0.756672
1.26550   0.756514
1.26600   0.755894
1.26650   0.755491
1.26700   0.755357
1.26750   0.754828
1.26800   0.754604
1.26850   0.754413
1.26900   0.754262
1.26950   0.754081
1.27000   0.754125
1.27050   0.753854
1.27100   0.753908
1.27150   0.753819
1.27200   0.754011
1.27250   0.754029
1.27300   0.754133
1.27350   0.754418
1.27400   0.754353
1.27450   0.754857
1.27500   0.754848
1.27550   0.755267
1.27600   0.755569
1.27650   0.756049
1.27700   0.756434
1.27750   0.757244
1.27800   0.757567
1.27850   0.758284
1.27900   0.758717
1.27950   0.759376
1.28000   0.760353
1.28050   0.760768
1.28100   0.761512
1.28150   0.762252
1.28200   0.762887
1.28250   0.763743
1.28300   0.764734
1.28350   0.765552
1.28400   0.766183
1.28450   0.767149
1.28500   0.768196
1.28550   0.769243
1.28600   0.770176
1.28650   0.771171
1.28700   0.772209
1.28750   0.772912
1.28800   0.774318
1.28850   0.775279
1.28900   0.776195
1.28950   0.777374
1.29000   0.778543
1.29050   0.779393
1.29100   0.780444
1.29150   0.781810
1.29200   0.782700
1.29250   0.783607
1.29300   0.785160
1.29350   0.786346
1.29400   0.787410
1.29450   0.788672
1.29500   0.789539
1.29550   0.790717
1.29600   0.791694
1.29650   0.792805
1.29700   0.793911
1.29750   0.795100
1.29800   0.796011
1.29850   0.797173
1.29900   0.798194
1.29950   0.799441
1.30000   0.800551
1.30050   0.801497
1.30100   0.802559
1.30150   0.803394
1.30200   0.804409
1.30250   0.805426
1.30300   0.806582
1.30350   0.807332
1.30400   0.808155
1.30450   0.809141
1.30500   0.809862
1.30550   0.810735
1.30600   0.811199
1.30650   0.812357
1.30700   0.813130
1.30750   0.813943
1.30800   0.814713
1.30850   0.815435
1.30900   0.815933
1.30950   0.816545
1.31000   0.817143
1.31050   0.817728
1.31100   0.818134
1.31150   0.818648
1.31200   0.819376
1.31250   0.819896
1.31300   0.820200
1.31350   0.820642
1.31400   0.821113
1.31450   0.821395
1.31500   0.821671
1.31550   0.822027
1.31600   0.822302
1.31650   0.822621
1.31700   0.822639
1.31750   0.823065
1.31800   0.823268
1.31850   0.823317
1.31900   0.823577
1.31950   0.823556
1.32000   0.823807
1.32050   0.823551
1.32100   0.823828
1.32150   0.823633
1.32200   0.823982
1.32250   0.823905
1.32300   0.823685
1.32350   0.823627
1.32400   0.823726
1.32450   0.823594
1.32500   0.823475
1.32550   0.823301
1.32600   0.823026
1.32650   0.822930
1.32700   0.822603
1.32750   0.822653
1.32800   0.822445
1.32850   0.821996
1.32900   0.821935
1.32950   0.821774
1.33000   0.821354
1.33050   0.821407
1.33100   0.820845
1.33150   0.820819
1.33200   0.820410
1.33250   0.820226
1.33300   0.820001
1.33350   0.819567
1.33400   0.819184
1.33450   0.818993
1.33500   0.818676
1.33550   0.818318
1.33600   0.818294
1.33650   0.817908
1.33700   0.817745
1.33750   0.817290
1.33800   0.816777
1.33850   0.816466
1.33900   0.816242
1.33950   0.816051
1.34000   0.815594
1.34050   0.815253
1.34100   0.814818
1.34150   0.814612
1.34200   0.814312
1.34250   0.813790
1.34300   0.813713
1.34350   0.813425
1.34400   0.813094
1.34450   0.812959
1.34500   0.812571
1.34550   0.812348
1.34600   0.812193
1.34650   0.811971
1.34700   0.811739
1.34750   0.811383
1.34800   0.811160
1.34850   0.810843
1.34900   0.810648
1.34950   0.810563
1.35000   0.810171
1.35050   0.809989
1.35100   0.809889
1.35150   0.809699
1.35200   0.809763
1.35250   0.809361
1.35300   0.809366
1.35350   0.809084
1.35400   0.809104
1.35450   0.808790
1.35500   0.808536
1.35550   0.808382
1.35600   0.808317
1.35650   0.808089
1.35700   0.807995
1.35750   0.807653
1.35800   0.807715
1.35850   0.807644
1.35900   0.807637
1.35950   0.807504
1.36000   0.807492
1.36050   0.807144
1.36100   0.806942
1.36150   0.806843
1.36200   0.806165
1.36250   0.806375
1.36300   0.806372
1.36350   0.806291
1.36400   0.805877
1.36450   0.805634
1.36500   0.805481
1.36550   0.805287
1.36600   0.805079
1.36650   0.804810
1.36700   0.804902
1.36750   0.804401
1.36800   0.804211
1.36850   0.803708
1.36900   0.803194
1.36950   0.802969
1.37000   0.802522
1.37050   0.801688
1.37100   0.801025
1.37150   0.800314
1.37200   0.799599
1.37250   0.798468
1.37300   0.797406
1.37350   0.796728
1.37400   0.795982
1.37450   0.794859
1.37500   0.793860
1.37550   0.792614
1.37600   0.791897
1.37650   0.790856
1.37700   0.789749
1.37750   0.789052
1.37800   0.788389
1.37850   0.787375
1.37900   0.786662
1.37950   0.786327
1.38000   0.785666
1.38050   0.784928
1.38100   0.784627
1.38150   0.784145
1.38200   0.783599
1.38250   0.783256
1.38300   0.782992
1.38350   0.782929
1.38400   0.783100
1.38450   0.782995
1.38500   0.782857
1.38550   0.783194
1.38600   0.783091
1.38650   0.783171
1.38700   0.783685
1.38750   0.783848
1.38800   0.783960
1.38850   0.784040
1.38900   0.784457
1.38950   0.784761
1.39000   0.785101
1.39050   0.785302
1.39100   0.785896
1.39150   0.786079
1.39200   0.786532
1.39250   0.786937
1.39300   0.787039
1.39350   0.787438
1.39400   0.787934
1.39450   0.788163
1.39500   0.788526
1.39550   0.788981
1.39600   0.789316
1.39650   0.789544
1.39700   0.789877
1.39750   0.790525
1.39800   0.790839
1.39850   0.791262
1.39900   0.791542
1.39950   0.791820
1.40000   0.792084
1.40050   0.792489
1.40100   0.792905
1.40150   0.792992
1.40200   0.793379
1.40250   0.793852
1.40300   0.794371
1.40350   0.794192
1.40400   0.794683
1.40450   0.795096
1.40500   0.795187
1.40550   0.795390
1.40600   0.795962
1.40650   0.796188
1.40700   0.796436
1.40750   0.796549
1.40800   0.796882
1.40850   0.797033
1.40900   0.797450
1.40950   0.797451
1.41000   0.797874
1.41050   0.797983
1.41100   0.798358
1.41150   0.798490
1.41200   0.798811
1.41250   0.799174
1.41300   0.799384
1.41350   0.799734
1.41400   0.799597
1.41450   0.800060
1.41500   0.800491
1.41550   0.800457
1.41600   0.800827
1.41650   0.801121
1.41700   0.801375
1.41750   0.801785
1.41800   0.801684
1.41850   0.801942
1.41900   0.802059
1.41950   0.802521
1.42000   0.802592
1.42050   0.803066
1.42100   0.803184
1.42150   0.803457
1.42200   0.803820
1.42250   0.803890
1.42300   0.804112
1.42350   0.804343
1.42400   0.804536
1.42450   0.804656
1.42500   0.805044
1.42550   0.804982
1.42600   0.805352
1.42650   0.805424
1.42700   0.805634
1.42750   0.805863
1.42800   0.806064
1.42850   0.806033
1.42900   0.806372
1.42950   0.806732
1.43000   0.806983
1.43050   0.806885
1.43100   0.806996
1.43150   0.807316
1.43200   0.807536
1.43250   0.807318
1.43300   0.807501
1.43350   0.807821
1.43400   0.807830
1.43450   0.807842
1.43500   0.807952
1.43550   0.808112
1.43600   0.808219
1.43650   0.808151
1.43700   0.808315
1.43750   0.808398
1.43800   0.808405
1.43850   0.808446
1.43900   0.808349
1.43950   0.808319
1.44000   0.808376
1.44050   0.808591
1.44100   0.808436
1.44150   0.808447
1.44200   0.808560
1.44250   0.808399
1.44300   0.808417
1.44350   0.808514
1.44400   0.808534
1.44450   0.808256
1.44500   0.808176
1.44550   0.808257
1.44600   0.807924
1.44650   0.807614
1.44700   0.807646
1.44750   0.807472
1.44800   0.807286
1.44850   0.807175
1.44900   0.807148
1.44950   0.807031
1.45000   0.806728
1.45050   0.806614
1.45100   0.806388
1.45150   0.806704
1.45200   0.806002
1.45250   0.805854
1.45300   0.805517
1.45350   0.805438
1.45400   0.804937
1.45450   0.804887
1.45500   0.804559
1.45550   0.804113
1.45600   0.804037
1.45650   0.803599
1.45700   0.803287
1.45750   0.802915
1.45800   0.802725
1.45850   0.802315
1.45900   0.801958
1.45950   0.801750
1.46000   0.801312
1.46050   0.800663
1.46100   0.800435
1.46150   0.800206
1.46200   0.800141
1.46250   0.799759
1.46300   0.799296
1.46350   0.798836
1.46400   0.798493
1.46450   0.798096
1.46500   0.797702
1.46550   0.797489
1.46600   0.797027
1.46650   0.796822
1.46700   0.796125
1.46750   0.795683
1.46800   0.795605
1.46850   0.795382
1.46900   0.794738
1.46950   0.794648
1.47000   0.794072
1.47050   0.793719
1.47100   0.793404
1.47150   0.793056
1.47200   0.792657
1.47250   0.792289
1.47300   0.792182
1.47350   0.791869
1.47400   0.791539
1.47450   0.791258
1.47500   0.790995
1.47550   0.790614
1.47600   0.790253
1.47650   0.790009
1.47700   0.789774
1.47750   0.789344
1.47800   0.789269
1.47850   0.789107
1.47900   0.788628
1.47950   0.788733
1.48000   0.788424
1.48050   0.788120
1.48100   0.787880
1.48150   0.787959
1.48200   0.787610
1.48250   0.787563
1.48300   0.787433
1.48350   0.787278
1.48400   0.787243
1.48450   0.787055
1.48500   0.786921
1.48550   0.787074
1.48600   0.787083
1.48650   0.786994
1.48700   0.787018
1.48750   0.786826
1.48800   0.786905
1.48850   0.787017
1.48900   0.786980
1.48950   0.787164
1.49000   0.787104
1.49050   0.787367
1.49100   0.787296
1.49150   0.787305
1.49200   0.787765
1.49250   0.787780
1.49300   0.787877
1.49350   0.788082
1.49400   0.788517
1.49450   0.788530
1.49500   0.788960
1.49550   0.788984
1.49600   0.789353
1.49650   0.789690
1.49700   0.790035
1.49750   0.790410
1.49800   0.790657
1.49850   0.791091
1.49900   0.791348
1.49950   0.791731
1.50000   0.791998
1.50050   0.792596
1.50100   0.792975
1.50150   0.793459
1.50200   0.793712
1.50250   0.794629
1.50300   0.794592
1.50350   0.795238
1.50400   0.795908
1.50450   0.796400
1.50500   0.796932
1.50550   0.797446
1.50600   0.798047
1.50650   0.798563
1.50700   0.799230
1.50750   0.799922
1.50800   0.800536
1.50850   0.801080
1.50900   0.801618
1.50950   0.801991
1.51000   0.802884
1.51050   0.803446
1.51100   0.804371
1.51150   0.804450
1.51200   0.805534
1.51250   0.806043
1.51300   0.806695
1.51350   0.807273
1.51400   0.807981
1.51450   0.808960
1.51500   0.809373
1.51550   0.809880
1.51600   0.810570
1.51650   0.811418
1.51700   0.812072
1.51750   0.812980
1.51800   0.813369
1.51850   0.814052
1.51900   0.814592
1.51950   0.815531
1.52000   0.816045
1.52050   0.816848
1.52100   0.817451
1.52150   0.818223
1.52200   0.818514
1.52250   0.819211
1.52300   0.819539
1.52350   0.820376
1.52400   0.821062
1.52450   0.821222
1.52500   0.821988
1.52550   0.822517
1.52600   0.823326
1.52650   0.823695
1.52700   0.824225
1.52750   0.824543
1.52800   0.825217
1.52850   0.825484
1.52900   0.826086
1.52950   0.826372
1.53000   0.826654
1.53050   0.826978
1.53100   0.827392
1.53150   0.827780
1.53200   0.828229
1.53250   0.828247
1.53300   0.828783
1.53350   0.828702
1.53400   0.828796
1.53450   0.829028
1.53500   0.829136
1.53550   0.829361
1.53600   0.829481
1.53650   0.829610
1.53700   0.829710
1.53750   0.829717
1.53800   0.829714
1.53850   0.829874
1.53900   0.829778
1.53950   0.829601
1.54000   0.829481
1.54050   0.829467
1.54100   0.829164
1.54150   0.829300
1.54200   0.828898
1.54250   0.828663
1.54300   0.828366
1.54350   0.828600
1.54400   0.827924
1.54450   0.827620
1.54500   0.827273
1.54550   0.826652
1.54600   0.826388
1.54650   0.825867
1.54700   0.825709
1.54750   0.824993
1.54800   0.824461
1.54850   0.823954
1.54900   0.823580
1.54950   0.822837
1.55000   0.822225
1.55050   0.821648
1.55100   0.821196
1.55150   0.820197
1.55200   0.819340
1.55250   0.818940
1.55300   0.818095
1.55350   0.817162
1.55400   0.816418
1.55450   0.815629
1.55500   0.814737
1.55550   0.813844
1.55600   0.813071
1.55650   0.812360
1.55700   0.811344
1.55750   0.810581
1.55800   0.809558
1.55850   0.808591
1.55900   0.807611
1.55950   0.806575
1.56000   0.805956
1.56050   0.804905
1.56100   0.803798
1.56150   0.802996
1.56200   0.801719
1.56250   0.800714
1.56300   0.799962
1.56350   0.798995
1.56400   0.797936
1.56450   0.797052
1.56500   0.795827
1.56550   0.794924
1.56600   0.793701
1.56650   0.792482
1.56700   0.791765
1.56750   0.790401
1.56800   0.789315
1.56850   0.788298
1.56900   0.787440
1.56950   0.786191
1.57000   0.785403
1.57050   0.784328
1.57100   0.783417
1.57150   0.782478
1.57200   0.781313
1.57250   0.780489
1.57300   0.779630
1.57350   0.778836
1.57400   0.777668
1.57450   0.776868
1.57500   0.775924
1.57550   0.774958
1.57600   0.773968
1.57650   0.773210
1.57700   0.772264
1.57750   0.771460
1.57800   0.770818
1.57850   0.769890
1.57900   0.769159
1.57950   0.768136
1.58000   0.767602
1.58050   0.766712
1.58100   0.766298
1.58150   0.765632
1.58200   0.764815
1.58250   0.764135
1.58300   0.763569
1.58350   0.763045
1.58400   0.762485
1.58450   0.761598
1.58500   0.761328
1.58550   0.760746
1.58600   0.760368
1.58650   0.759912
1.58700   0.759435
1.58750   0.758919
1.58800   0.758588
1.58850   0.758150
1.58900   0.757679
1.58950   0.757555
1.59000   0.757150
1.59050   0.757056
1.59100   0.756697
1.59150   0.756491
1.59200   0.756308
1.59250   0.756158
1.59300   0.755981
1.59350   0.756236
1.59400   0.755846
1.59450   0.755929
1.59500   0.755961
1.59550   0.755858
1.59600   0.755797
1.59650   0.755917
1.59700   0.756248
1.59750   0.755974
1.59800   0.756049
1.59850   0.756283
1.59900   0.756249
1.59950   0.756557
1.60000   0.756776
1.60050   0.756924
1.60100   0.757293
1.60150   0.757518
1.60200   0.757799
1.60250   0.758295
1.60300   0.758556
1.60350   0.758799
1.60400   0.759249
1.60450   0.759794
1.60500   0.760132
1.60550   0.760889
1.60600   0.761319
1.60650   0.761553
1.60700   0.762180
1.60750   0.762636
1.60800   0.763324
1.60850   0.763678
1.60900   0.764621
1.60950   0.765263
1.61000   0.765754
1.61050   0.766505
1.61100   0.767134
1.61150   0.767433
1.61200   0.768154
1.61250   0.769324
1.61300   0.769983
1.61350   0.770591
1.61400   0.771646
1.61450   0.772288
1.61500   0.772927
1.61550   0.774033
1.61600   0.774835
1.61650   0.775429
1.61700   0.776374
1.61750   0.777030
1.61800   0.778093
1.61850   0.778820
1.61900   0.779730
1.61950   0.780499
1.62000   0.781548
1.62050   0.782313
1.62100   0.783041
1.62150   0.784087
1.62200   0.784931
1.62250   0.785824
1.62300   0.786940
1.62350   0.787689
1.62400   0.788634
1.62450   0.789436
1.62500   0.790336
1.62550   0.791131
1.62600   0.792116
1.62650   0.793052
1.62700   0.793896
1.62750   0.794660
1.62800   0.795731
1.62850   0.796289
1.62900   0.797171
1.62950   0.798082
1.63000   0.799135
1.63050   0.799647
1.63100   0.800466
1.63150   0.801560
1.63200   0.802182
1.63250   0.802697
1.63300   0.803663
1.63350   0.804309
1.63400   0.805031
1.63450   0.805745
1.63500   0.806646
1.63550   0.806918
1.63600   0.807952
1.63650   0.808380
1.63700   0.809033
1.63750   0.809488
1.63800   0.810381
1.63850   0.810809
1.63900   0.811598
1.63950   0.811822
1.64000   0.812471
1.64050   0.813319
1.64100   0.813473
1.64150   0.814070
1.64200   0.814390
1.64250   0.814790
1.64300   0.815163
1.64350   0.815509
1.64400   0.815957
1.64450   0.816322
1.64500   0.816295
1.64550   0.816826
1.64600   0.817051
1.64650   0.817521
1.64700   0.817786
1.64750   0.817906
1.64800   0.818101
1.64850   0.818384
1.64900   0.818446
1.64950   0.818743
1.65000   0.818695
1.65050   0.818815
1.65100   0.819000
1.65150   0.818757
1.65200   0.819028
1.65250   0.819230
1.65300   0.818894
1.65350   0.818926
1.65400   0.819138
1.65450   0.818947
1.65500   0.818762
1.65550   0.819050
1.65600   0.818702
1.65650   0.818702
1.65700   0.818777
1.65750   0.818396
1.65800   0.818484
1.65850   0.818365
1.65900   0.818168
1.65950   0.818061
1.66000   0.818039
1.66050   0.817836
1.66100   0.817617
1.66150   0.817537
1.66200   0.817114
1.66250   0.817283
1.66300   0.816807
1.66350   0.816848
1.66400   0.816675
1.66450   0.816244
1.66500   0.816004
1.66550   0.816123
1.66600   0.815720
1.66650   0.815375
1.66700   0.815421
1.66750   0.815131
1.66800   0.815170
1.66850   0.814696
1.66900   0.814662
1.66950   0.814522
1.67000   0.814243
1.67050   0.814190
1.67100   0.814247
1.67150   0.813725
1.67200   0.813670
1.67250   0.813556
1.67300   0.813591
1.67350   0.813413
1.67400   0.813221
1.67450   0.813010
1.67500   0.812887
1.67550   0.812985
1.67600   0.812800
1.67650   0.813187
1.67700   0.813077
1.67750   0.812874
1.67800   0.813049
1.67850   0.812797
1.67900   0.812812
1.67950   0.813132
1.68000   0.813167
1.68050   0.813113
1.68100   0.813373
1.68150   0.813314
1.68200   0.813432
1.68250   0.813585
1.68300   0.813781
1.68350   0.814061
1.68400   0.814232
1.68450   0.814426
1.68500   0.814564
1.68550   0.814724
1.68600   0.815032
1.68650   0.815096
1.68700   0.815425
1.68750   0.815652
1.68800   0.816154
1.68850   0.816680
1.68900   0.816585
1.68950   0.817016
1.69000   0.817490
1.69050   0.817990
1.69100   0.818217
1.69150   0.818764
1.69200   0.819143
1.69250   0.819165
1.69300   0.819747
1.69350   0.820265
1.69400   0.820400
1.69450   0.820930
1.69500   0.821220
1.69550   0.821833
1.69600   0.821990
1.69650   0.822831
1.69700   0.823292
1.69750   0.823375
1.69800   0.824029
1.69850   0.824427
1.69900   0.824854
1.69950   0.825113
1.70000   0.825736
1.70050   0.826218
1.70100   0.826573
1.70150   0.826785
1.70200   0.827344
1.70250   0.827729
1.70300   0.828314
1.70350   0.828395
1.70400   0.828616
1.70450   0.829171
1.70500   0.829484
1.70550   0.829259
1.70600   0.829767
1.70650   0.830049
1.70700   0.830495
1.70750   0.830711
1.70800   0.830565
1.70850   0.830642
1.70900   0.830964
1.70950   0.830848
1.71000   0.830807
1.71050   0.831025
1.71100   0.830953
1.71150   0.831171
1.71200   0.830844
1.71250   0.830947
1.71300   0.830830
1.71350   0.830324
1.71400   0.830308
1.71450   0.829962
1.71500   0.829519
1.71550   0.829498
1.71600   0.829079
1.71650   0.828279
1.71700   0.828060
1.71750   0.827708
1.71800   0.826815
1.71850   0.826159
1.71900   0.825592
1.71950   0.824598
1.72000   0.824032
1.72050   0.823153
1.72100   0.822360
1.72150   0.821553
1.72200   0.820371
1.72250   0.819465
1.72300   0.818574
1.72350   0.817599
1.72400   0.816351
1.72450   0.815158
1.72500   0.813948
1.72550   0.812578
1.72600   0.811425
1.72650   0.809962
1.72700   0.808397
1.72750   0.807269
1.72800   0.805942
1.72850   0.804644
1.72900   0.802800
1.72950   0.801173
1.73000   0.799863
1.73050   0.798257
1.73100   0.796517
1.73150   0.795198
1.73200   0.793396
1.73250   0.791619
1.73300   0.790176
1.73350   0.788438
1.73400   0.786711
1.73450   0.785100
1.73500   0.783265
1.73550   0.781541
1.73600   0.779861
1.73650   0.778156
1.73700   0.776714
1.73750   0.774828
1.73800   0.773319
1.73850   0.771467
1.73900   0.769410
1.73950   0.767953
1.74000   0.766396
1.74050   0.764511
1.74100   0.763192
1.74150   0.761626
1.74200   0.759926
1.74250   0.758428
1.74300   0.757123
1.74350   0.755580
1.74400   0.754263
1.74450   0.752950
1.74500   0.751641
1.74550   0.750421
1.74600   0.749731
1.74650   0.748287
1.74700   0.747133
1.74750   0.746119
1.74800   0.745213
1.74850   0.744460
1.74900   0.743372
1.74950   0.743027
1.75000   0.742404
1.75050   0.741976
1.75100   0.741246
1.75150   0.740729
1.75200   0.740231
1.75250   0.740105
1.75300   0.740214
1.75350   0.740170
1.75400   0.739905
1.75450   0.740320
1.75500   0.740311
1.75550   0.740788
1.75600   0.741247
1.75650   0.741564
1.75700   0.742543
1.75750   0.743302
1.75800   0.743994
1.75850   0.744917
1.75900   0.745903
1.75950   0.747154
1.76000   0.748147
1.76050   0.749791
1.76100   0.751365
1.76150   0.752862
1.76200   0.754666
1.76250   0.756859
1.76300   0.758227
1.76350   0.760212
1.76400   0.762327
1.76450   0.764612
1.76500   0.766600
1.76550   0.768974
1.76600   0.771608
1.76650   0.774205
1.76700   0.776763
1.76750   0.779371
1.76800   0.782062
1.76850   0.784867
1.76900   0.787013
1.76950   0.789838
1.77000   0.792559
1.77050   0.795041
1.77100   0.797542
1.77150   0.799980
1.77200   0.802648
1.77250   0.804962
1.77300   0.807106
1.77350   0.808873
1.77400   0.811397
1.77450   0.812698
1.77500   0.814258
1.77550   0.815693
1.77600   0.816297
1.77650   0.816610
1.77700   0.816687
1.77750   0.816315
1.77800   0.815902
1.77850   0.815126
1.77900   0.812984
1.77950   0.810670
1.78000   0.808078
1.78050   0.804383
1.78100   0.800677
1.78150   0.795910
1.78200   0.790514
1.78250   0.784033
1.78300   0.776817
1.78350   0.769761
1.78400   0.761515
1.78450   0.752528
1.78500   0.742764
1.78550   0.731829
1.78600   0.720423
1.78650   0.708134
1.78700   0.695998
1.78750   0.682500
1.78800   0.669581
1.78850   0.655107
1.78900   0.639587
1.78950   0.624647
1.79000   0.608927
1.79050   0.593139
1.79100   0.577599
1.79150   0.560996
1.79200   0.544011
1.79250   0.526794
1.79300   0.510380
1.79350   0.494062
1.79400   0.477960
1.79450   0.461223
1.79500   0.445005
1.79550   0.428518
1.79600   0.412138
1.79650   0.396942
1.79700   0.381766
1.79750   0.367238
1.79800   0.352739
1.79850   0.338340
1.79900   0.324502
1.79950   0.311022
1.80000   0.298270
1.80050   0.285784
1.80100   0.273626
1.80150   0.261313
1.80200   0.250126
1.80250   0.239476
1.80300   0.228936
1.80350   0.219426
1.80400   0.209975
1.80450   0.200799
1.80500   0.192043
1.80550   0.183118
1.80600   0.175387
1.80650   0.167276
1.80700   0.160384
1.80750   0.153350
1.80800   0.145925
1.80850   0.139858
1.80900   0.133836
1.80950   0.128432
1.81000   0.123100
1.81050   0.117886
1.81100   0.112274
1.81150   0.106997
1.81200   0.102249
1.81250   0.0981989
1.81300   0.0944240
1.81350   0.0904027
1.81400   0.0864752
1.81450   0.0828888
1.81500   0.0793783
1.81550   0.0755741
1.81600   0.0724255
1.81650   0.0696953
1.81700   0.0666370
1.81750   0.0637707
1.81800   0.0615336
1.81850   0.0593322
1.81900   0.0570563
1.81950   0.0548150
1.82000   0.0524789
1.82050   0.0496745
1.82100   0.0477541
1.82150   0.0454118
1.82200   0.0445983
1.82250   0.0425425
1.82300   0.0408913
1.82350   0.0394090
1.82400   0.0381619
1.82450   0.0363857
1.82500   0.0354075
1.82550   0.0341920
1.82600   0.0330349
1.82650   0.0310162
1.82700   0.0303888
1.82750   0.0291939
1.82800   0.0282033
1.82850   0.0270752
1.82900   0.0263002
1.82950   0.0251741
1.83000   0.0239429
1.83050   0.0232701
1.83100   0.0223563
1.83150   0.0218842
1.83200   0.0209755
1.83250   0.0203280
1.83300   0.0197701
1.83350   0.0193026
1.83400   0.0180270
1.83450   0.0178436
1.83500   0.0175412
1.83550   0.0166174
1.83600   0.0158950
1.83650   0.0156287
1.83700   0.0143476
1.83750   0.0144939
1.83800   0.0137732
1.83850   0.0132235
1.83900   0.0131486
1.83950   0.0126036
1.84000   0.0122845
1.84050   0.0116618
1.84100   0.0118209
1.84150   0.0110715
1.84200   0.0105387
1.84250   0.0101327
1.84300   0.00964063
1.84350   0.00969004
1.84400   0.00980735
1.84450   0.00931134
1.84500   0.00901744
1.84550   0.00885892
1.84600   0.00870541
1.84650   0.00842341
1.84700   0.00750114
1.84750   0.00768802
1.84800   0.00739633
1.84850   0.00706563
1.84900   0.00685769
1.84950   0.00637480
1.85000   0.00697993
1.85050   0.00652417
1.85100   0.00549507
1.85150   0.00590336
1.85200   0.00600949
1.85250   0.00537917
1.85300   0.00557794
1.85350   0.00503375
1.85400   0.00555909
1.85450   0.00498981
1.85500   0.00459613
1.85550   0.00492155
1.85600   0.00485937
1.85650   0.00443232
1.85700   0.00412240
1.85750   0.00376369
1.85800   0.00403248
1.85850   0.00398660
1.85900   0.00390724
1.85950   0.00383608
1.86000   0.00375312
1.86050   0.00374475
1.86100   0.00351278
1.86150   0.00365290
1.86200   0.00306010
1.86250   0.00308951
1.86300   0.00312078
1.86350   0.00318718
1.86400   0.00287048
1.86450   0.00305384
1.86500   0.00283270
1.86550   0.00280275
1.86600   0.00286062
1.86650   0.00271415
1.86700   0.00291496
1.86750   0.00268685
1.86800   0.00190893
1.86850   0.00263146
1.86900   0.00305243
1.86950   0.00239754
1.87000   0.00212919
1.87050   0.00236883
1.87100   0.00154176
1.87150   0.00206842
1.87200   0.00213130
1.87250   0.00187326
1.87300   0.00164181
1.87350   0.00184560
1.87400   0.00142243
1.87450   0.00183107
1.87500   0.00192742
1.87550   0.00183741
1.87600   0.00183882
1.87650   0.00160359
1.87700   0.00158254
1.87750   0.00177647
1.87800   0.00154546
1.87850   0.00170830
1.87900   0.00156748
1.87950   0.00143106
1.88000   0.00151164
1.88050   0.00116262
1.88100   0.00125430
1.88150   0.00107472
1.88200   0.00174670
1.88250   0.00111893
1.88300   0.00123307
1.88350   0.00116896
1.88400   0.00121440
1.88450   0.00104575
1.88500   0.000941297
1.88550   0.00122321
1.88600   0.00130476
1.88650   0.00106010
1.88700   0.00104372
1.88750   0.000650400
1.88800   0.000972474
1.88850   0.000813947
1.88900   0.00125192
1.88950   0.00130168
1.89000   0.00140578
1.89050   0.000907830
1.89100   0.000571225
1.89150   0.000650576
1.89200   0.000668455
1.89250   0.000790432
1.89300   0.000458407
1.89350   0.000953451
1.89400   0.000567350
1.89450   0.00111092
1.89500   0.000413931
1.89550   0.00103958
1.89600   0.000764804
1.89650   0.00100832
1.89700   0.000969920
1.89750   0.000974676
1.89800   0.000507726
1.89850   0.000609095
1.89900   0.000327182
1.89950   0.000468799
1.90000   0.000347614
1.90050   0.000815532
1.90100   0.000854195
1.90150   0.000190496
1.90200   0.000627942
1.90250   0.000306485
1.90300   0.000953627
1.90350   0.000510192
1.90400   0.000553523
1.90450   0.000842922
1.90500   0.000461577
1.90550   0.000215685
1.90600   0.000484916
1.90650   0.000499712
1.90700   0.000779776
1.90750   0.000161257
1.90800   0.000316966
1.90850   0.000792370
1.90900   0.000654980
1.90950   0.000562242
1.91000   0.000218679
1.91050   0.00000
1.91100   0.000625212
1.91150   0.000663346
1.91200   0.000640977
1.91250   1.05685e-06
1.91300   0.000833499
1.91350   0.000587782
1.91400   0.000956621
1.91450   0.000199568
1.91500   0.000112730
1.91550   0.000221057
1.91600   0.000488615
1.91650   0.000241049
1.91700   0.000505612
1.91750   0.000933987
1.91800   6.22658e-05
1.91850   0.000287902
1.91900   0.000957414
1.91950   0.000461225
1.92000   0.000341801
1.92050   0.00000
1.92100   0.000236469
1.92150   0.000345236
1.92200   5.58367e-05
1.92250   0.000192258
1.92300   0.00000
1.92350   2.95917e-05
1.92400   0.000277862
1.92450   0.000414195
1.92500   0.000164868
1.92550   0.000246421
1.92600   0.000110881
1.92650   0.000280592
1.92700   0.00000
1.92750   8.56045e-05
1.92800   0.00000
1.92850   0.000767358
1.92900   3.52282e-07
1.92950   0.000168743
1.93000   0.000334756
1.93050   0.000606189
1.93100   0.000165925
1.93150   2.86229e-05
1.93200   0.000467830
1.93250   0.000303403
1.93300   0.000799151
1.93350   0.000249239
1.93400   2.77422e-05
1.93450   1.84948e-06
1.93500   0.000250648
1.93550   0.00000
1.93600   0.000338190
1.93650   0.000511601
1.93700   0.00000
1.93750   0.000403627
1.93800   0.00000
1.93850   8.70136e-05
1.93900   0.000632434
1.93950   0.000227750
1.94000   0.000338279
1.94050   5.28423e-07
1.94100   8.37550e-05
1.94150   0.000248799
1.94200   6.26181e-05
1.94250   0.000415604
1.94300   0.000167422
1.94350   0.000363026
1.94400   0.000252850
1.94450   0.00000
1.94500   0.00000
1.94550   0.000167774
1.94600   0.00000
1.94650   0.000502530
1.94700   0.000196926
1.94750   0.000230040
1.94800   8.41953e-05
1.94850   0.000195957
1.94900   0.000195781
1.94950   0.000223170
1.95000   0.00000
1.95050   0.000251353
1.95100   0.000196309
1.95150   0.000197542
1.95200   0.000169448
1.95250   0.00000
1.95300   0.000147254
1.95350   0.000403010
1.95400   0.000171209
1.95450   0.00000
1.95500   0.000284820
1.95550   0.000260953
1.95600   0.00000
1.95650   0.00000
1.95700   0.000204411
1.95750   0.00000
1.95800   0.000200096
1.95850   0.000429520
1.95900   0.00000
1.95950   0.000143379
1.96000   0.00000
1.96050   0.00000
1.96100   0.00000
1.96150   0.000292218
1.96200   0.00000
1.96250   0.000173851
1.96300   0.00000
1.96350   0.00000
1.96400   3.32026e-05
1.96450   0.000462106
1.96500   0.00000
1.96550   0.000206525
1.96600   0.00000
1.96650   8.70136e-05
1.96700   0.00000
1.96750   0.00000
1.96800   0.000174820
1.96850   0.000116958
1.96900   0.00000
1.96950   0.00000
1.97000   0.000176493
1.97050   0.000411289
1.97100   6.16493e-07
1.97150   0.000324275
1.97200   0.000206261
1.97250   0.000147694
1.97300   0.00000
1.97350   0.000327006
1.97400   0.00000
1.97450   0.00000
1.97500   1.76141e-07
1.97550   0.00000
1.97600   0.000563739
1.97650   0.000416485
1.97700   6.02402e-05
1.97750   0.00000
1.97800   0.00000
1.97850   0.00000
1.97900   0.000121097
1.97950   0.000300761
1.98000   0.000451889
1.98050   0.000151305
1.98100   0.000181689
1.98150   0.000452770
1.98200   0.000392706
1.98250   0.000513275
1.98300   1.84948e-06
1.98350   0.00000
1.98400   2.99439e-05
1.98450   0.00000
1.98500   0.000549207
1.98550   0.000244043
1.98600   0.00000
1.98650   0.000275660
1.98700   0.000183979
1.98750   3.13531e-05
1.98800   0.000307630
1.98850   0.000368927
1.98900   0.00000
1.98950   0.00000
1.99000   0.000370600
1.99050   0.00000
1.99100   3.11769e-05
1.99150   3.12650e-05
1.99200   0.00000
1.99250   0.000372890
1.99300   0.00000
1.99350   9.37950e-05
1.99400   0.00000
1.99450   3.14411e-05
1.99500   6.01521e-05
1.99550   3.20576e-05
1.99600   0.000251089
1.99650   0.00000
1.99700   6.32346e-05
1.99750   0.00000
1.99800   0.000816853
1.99850   0.000379584
